"","uid","response","internal_node_id","nTimeouts","stimulus","chosen_attr_type","trial_index","valence","timedout","chosen_attr","trial_type","itemNo","rt","time_elapsed","taskNo","trialNo","interventionCondition","learningCondition","totalTimeJsPsych","intStartTime","intEndTime","nTrials","ID","group","internalChosen","globalChosen","internalGlobalChosen","internalSpecificChosen","externalGlobalChosen","externalSpecificChosen"
"1","subCALEARN_1",3,"0.0-2.0-0.0-0.0",0,"You find out that someone you consider a friend has talked about you negatively behind your back","external_global",3,"negative",FALSE,"Everyone has bad things said about them sometimes","html-button-response-ca",0,13762,159652,0,0,"control","causal",2229468,1750232.90000001,2041439.30000001,64,1,2,0,1,0,0,1,0
"2","subCALEARN_1",2,"0.0-2.0-0.1-0.1",0,"Someone from work invites you out for a cup of coffee","external_specific",4,"positive",FALSE,"This person is probably trying to make a good impression for some reason","html-button-response-ca",1,9769,170924,0,1,"control","causal",2229468,1750232.90000001,2041439.30000001,64,1,2,0,0,0,0,0,1
"3","subCALEARN_1",1,"0.0-2.0-0.10-0.10",0,"You didn't get the amount of work done you needed to","internal_specific",13,"negative",FALSE,"I probably dedicated too much time to unimportant tasks this week","html-button-response-ca",18,9255,305896,0,10,"control","causal",2229468,1750232.90000001,2041439.30000001,64,1,2,1,0,0,1,0,0
"4","subCALEARN_1",0,"0.0-2.0-0.11-0.11",0,"You walk past a cafe close to work and see your some of your colleagues are meeting for lunch without you","internal_global",14,"negative",FALSE,"People generally don't like me","html-button-response-ca",22,21520,328921,0,11,"control","causal",2229468,1750232.90000001,2041439.30000001,64,1,2,1,1,1,0,0,0
"5","subCALEARN_1",2,"0.0-2.0-0.12-0.12",0,"A friend tells you you make them laugh","external_specific",15,"positive",FALSE,"This particular friend happens to have a similar sense of humour to me","html-button-response-ca",24,7871,338294,0,12,"control","causal",2229468,1750232.90000001,2041439.30000001,64,1,2,0,0,0,0,0,1
"6","subCALEARN_1",0,"0.0-2.0-0.13-0.13",0,"A friend tells you speaking with you always makes them feel better","external_specific",16,"positive",FALSE,"My friend was probably trying to boost me up for some reason","html-button-response-ca",32,17461,357261,0,13,"control","causal",2229468,1750232.90000001,2041439.30000001,64,1,2,0,0,0,0,0,1
"7","subCALEARN_1",2,"0.0-2.0-0.14-0.14",0,"You find out that you have been put forward for a leadership position at work","internal_global",17,"positive",FALSE,"My colleagues respect my skill at work","html-button-response-ca",39,8817,367594,0,14,"control","causal",2229468,1750232.90000001,2041439.30000001,64,1,2,1,1,1,0,0,0
"8","subCALEARN_1",2,"0.0-2.0-0.15-0.15",0,"You submitted an application to join a local community forum but haven't heard anything back","external_specific",18,"negative",FALSE,"This time, my application was probably delayed for some reason","html-button-response-ca",41,12124,381231,0,15,"control","causal",2229468,1750232.90000001,2041439.30000001,64,1,2,0,0,0,0,0,1
"9","subCALEARN_1",3,"0.0-2.0-0.16-0.16",0,"Someone you are close to has sent you a card thanking you for being there for them during a difficult time","internal_global",20,"positive",FALSE,"I'm a good friend and people appreciate that","html-button-response-ca",43,14181,399147,0,16,"control","causal",2229468,1750232.90000001,2041439.30000001,64,1,2,1,1,1,0,0,0
"10","subCALEARN_1",0,"0.0-2.0-0.17-0.17",0,"You find out someone has contacted your employer to praise work you did for them","internal_global",21,"positive",FALSE,"I'm good at my job","html-button-response-ca",54,9498,410173,0,17,"control","causal",2229468,1750232.90000001,2041439.30000001,64,1,2,1,1,1,0,0,0
"11","subCALEARN_1",0,"0.0-2.0-0.18-0.18",0,"You successfully practice saying some phrases of a new language you are trying to learn","internal_specific",22,"positive",FALSE,"I've been making a particular effort recently to spend time learning new things","html-button-response-ca",62,26701,438389,0,18,"control","causal",2229468,1750232.90000001,2041439.30000001,64,1,2,1,0,0,1,0,0
"12","subCALEARN_1",0,"0.0-2.0-0.19-0.19",0,"Someone you are close to tells you they trust you","internal_global",23,"positive",FALSE,"I'm a trustworthy person","html-button-response-ca",68,4603,444515,0,19,"control","causal",2229468,1750232.90000001,2041439.30000001,64,1,2,1,1,1,0,0,0
"13","subCALEARN_1",0,"0.0-2.0-0.2-0.2",0,"You message your friend to ask for advice but they don't reply","external_specific",5,"negative",FALSE,"My friend is probably just too busy to respond right now","html-button-response-ca",2,9543,181970,0,2,"control","causal",2229468,1750232.90000001,2041439.30000001,64,1,2,0,0,0,0,0,1
"14","subCALEARN_1",0,"0.0-2.0-0.20-0.20",0,"You speak during a community meeting but feel like people aren't interested in what you have to say","internal_global",24,"negative",FALSE,"I am not interesting","html-button-response-ca",72,8824,454840,0,20,"control","causal",2229468,1750232.90000001,2041439.30000001,64,1,2,1,1,1,0,0,0
"15","subCALEARN_1",2,"0.0-2.0-0.21-0.21",0,"You washed your clothes on the wrong setting and the colours have run","internal_specific",25,"negative",FALSE,"On this occasion, I wasn't paying enough attention","html-button-response-ca",74,5253,461603,0,21,"control","causal",2229468,1750232.90000001,2041439.30000001,64,1,2,1,0,0,1,0,0
"16","subCALEARN_1",3,"0.0-2.0-0.22-0.22",0,"You see a very close friend and wave at them but they don't wave back","external_global",26,"negative",FALSE,"People often miss other people waving at them in the street","html-button-response-ca",79,6790,469895,0,22,"control","causal",2229468,1750232.90000001,2041439.30000001,64,1,2,0,1,0,0,1,0
"17","subCALEARN_1",1,"0.0-2.0-0.23-0.23",0,"A colleague comments on the high quality of your recent work","internal_global",27,"positive",FALSE,"I'm skilled at what I do","html-button-response-ca",93,5441,476847,0,23,"control","causal",2229468,1750232.90000001,2041439.30000001,64,1,2,1,1,1,0,0,0
"18","subCALEARN_1",2,"0.0-2.0-0.24-0.24",0,"You want to be nominated for a role in your local community group but no one suggests you","internal_specific",28,"negative",FALSE,"Recently, I haven't been involved much in community events","html-button-response-ca",99,7354,485720,0,24,"control","causal",2229468,1750232.90000001,2041439.30000001,64,1,2,1,0,0,1,0,0
"19","subCALEARN_1",2,"0.0-2.0-0.25-0.25",0,"Someone from work tells you they would like to be on your team for a work social event","internal_global",29,"positive",FALSE,"I'm the sort of person people like to have on their team","html-button-response-ca",101,9426,496649,0,25,"control","causal",2229468,1750232.90000001,2041439.30000001,64,1,2,1,1,1,0,0,0
"20","subCALEARN_1",2,"0.0-2.0-0.26-0.26",0,"Someone you care about takes time out of their busy day to check in on you ","external_specific",30,"positive",FALSE,"Someone else probably prompted this person to get in touch","html-button-response-ca",104,48296,546470,0,26,"control","causal",2229468,1750232.90000001,2041439.30000001,64,1,2,0,0,0,0,0,1
"21","subCALEARN_1",0,"0.0-2.0-0.27-0.27",0,"You forget you have put dinner in the oven and it burns","internal_specific",31,"negative",FALSE,"On this occasion, I let myself be distracted by something unimportant","html-button-response-ca",105,7105,555091,0,27,"control","causal",2229468,1750232.90000001,2041439.30000001,64,1,2,1,0,0,1,0,0
"22","subCALEARN_1",1,"0.0-2.0-0.28-0.28",0,"You overhear a colleague telling someone else they don't like you","external_specific",32,"negative",FALSE,"This particular person seems to be rude about everyone","html-button-response-ca",112,8213,564822,0,28,"control","causal",2229468,1750232.90000001,2041439.30000001,64,1,2,0,0,0,0,0,1
"23","subCALEARN_1",1,"0.0-2.0-0.29-0.29",0,"A colleague tells you they particularly appreciate your feedback on their work, as it is valuable","internal_global",33,"positive",FALSE,"I'm the sort of person who's opinion people value","html-button-response-ca",113,12541,578877,0,29,"control","causal",2229468,1750232.90000001,2041439.30000001,64,1,2,1,1,1,0,0,0
"24","subCALEARN_1",3,"0.0-2.0-0.3-0.3",0,"You return from the shops without something important from your shopping list","external_specific",6,"negative",FALSE,"Someone or something probably distracted me that time","html-button-response-ca",3,15081,198565,0,3,"control","causal",2229468,1750232.90000001,2041439.30000001,64,1,2,0,0,0,0,0,1
"25","subCALEARN_1",3,"0.0-2.0-0.30-0.30",0,"You find out a colleague has nominated you for a performance award at work","internal_global",34,"positive",FALSE,"I'm good at my job","html-button-response-ca",116,4637,585032,0,30,"control","causal",2229468,1750232.90000001,2041439.30000001,64,1,2,1,1,1,0,0,0
"26","subCALEARN_1",0,"0.0-2.0-0.31-0.31",0,"You present your work during your evening class and get lots of praise from your classmates","external_specific",35,"positive",FALSE,"This particular class are kind","html-button-response-ca",127,11324,597865,0,31,"control","causal",2229468,1750232.90000001,2041439.30000001,64,1,2,0,0,0,0,0,1
"27","subCALEARN_1",0,"0.0-2.0-0.4-0.4",0,"You'd like to be more engaged in your local community","external_specific",7,"negative",FALSE,"Recently, there were a lot of other things going on","html-button-response-ca",5,28061,228130,0,4,"control","causal",2229468,1750232.90000001,2041439.30000001,64,1,2,0,0,0,0,0,1
"28","subCALEARN_1",2,"0.0-2.0-0.5-0.5",0,"Your suggestion for a community social event receives the lowest number of votes","internal_specific",8,"negative",FALSE,"I probably didn't come up with a good enough idea this time","html-button-response-ca",7,14258,243900,0,5,"control","causal",2229468,1750232.90000001,2041439.30000001,64,1,2,1,0,0,1,0,0
"29","subCALEARN_1",3,"0.0-2.0-0.6-0.6",0,"You receive anonymised feedback on your work performance by colleagues, and it's very complimentary","internal_specific",9,"positive",FALSE,"Recently, I did well on a particular piece of work","html-button-response-ca",8,9459,254875,0,6,"control","causal",2229468,1750232.90000001,2041439.30000001,64,1,2,1,0,0,1,0,0
"30","subCALEARN_1",0,"0.0-2.0-0.7-0.7",0,"Someone you feel very close to is having a birthday dinner but hasn't invited you","internal_global",10,"negative",FALSE,"People I feel close to don't actually like me","html-button-response-ca",13,14094,270474,0,7,"control","causal",2229468,1750232.90000001,2041439.30000001,64,1,2,1,1,1,0,0,0
"31","subCALEARN_1",3,"0.0-2.0-0.8-0.8",0,"You find out that your manager wants to put you forward for promotion at work","internal_global",11,"positive",FALSE,"I'm good at my job","html-button-response-ca",15,8909,280889,0,8,"control","causal",2229468,1750232.90000001,2041439.30000001,64,1,2,1,1,1,0,0,0
"32","subCALEARN_1",1,"0.0-2.0-0.9-0.9",0,"You smile at someone across the street you recognise, but they don't smile back","external_specific",12,"negative",FALSE,"They were probably preoccupied and didn't see me","html-button-response-ca",17,12739,295129,0,9,"control","causal",2229468,1750232.90000001,2041439.30000001,64,1,2,0,0,0,0,0,1
"33","subCALEARN_1",1,"0.0-18.0-0.0-0.0",0,"You take part in a quiz at work and get lots of answers right, so your team wins","internal_global",184,"positive",FALSE,"I'm smart","html-button-response-ca",11,5898,1909850,1,0,"control","causal",2229468,1750232.90000001,2041439.30000001,64,1,2,1,1,1,0,0,0
"34","subCALEARN_1",2,"0.0-18.0-0.1-0.1",0,"Your neighbour asks you to help them with their maths homework, and you do a good job explaining the problems to them","internal_global",185,"positive",FALSE,"I'm intelligent","html-button-response-ca",21,6089,1917441,1,1,"control","causal",2229468,1750232.90000001,2041439.30000001,64,1,2,1,1,1,0,0,0
"35","subCALEARN_1",1,"0.0-18.0-0.10-0.10",0,"Someone you are close to tells you you are not funny","external_global",194,"negative",FALSE,"Everyone has different senses of humour","html-button-response-ca",47,5906,1998061,1,10,"control","causal",2229468,1750232.90000001,2041439.30000001,64,1,2,0,1,0,0,1,0
"36","subCALEARN_1",1,"0.0-18.0-0.11-0.11",0,"Someone you work with tells you they trust your judgement","internal_specific",195,"positive",FALSE,"In the past, I have helped out this particular colleage with some advice","html-button-response-ca",53,10599,2010163,1,11,"control","causal",2229468,1750232.90000001,2041439.30000001,64,1,2,1,0,0,1,0,0
"37","subCALEARN_1",1,"0.0-18.0-0.12-0.12",0,"Someone you care about deeply has disclosed something you told them in confidence to someone else","external_specific",196,"negative",FALSE,"This person probably didn't remember this particular thing was told to them in confidence","html-button-response-ca",55,15893,2027574,1,12,"control","causal",2229468,1750232.90000001,2041439.30000001,64,1,2,0,0,0,0,0,1
"38","subCALEARN_1",0,"0.0-18.0-0.13-0.13",0,"Someone you are close to tells you they consider you a role model","internal_global",197,"positive",FALSE,"I'm the kind of person people look up to","html-button-response-ca",56,8628,2037704,1,13,"control","causal",2229468,1750232.90000001,2041439.30000001,64,1,2,1,1,1,0,0,0
"39","subCALEARN_1",3,"0.0-18.0-0.14-0.14",0,"You overhear someone at work talking about you behind your back","external_global",198,"negative",FALSE,"It's not uncommon for people to let off steam by talking about their colleagues","html-button-response-ca",59,7219,2046425,1,14,"control","causal",2229468,1750232.90000001,2041439.30000001,64,1,2,0,1,0,0,1,0
"40","subCALEARN_1",0,"0.0-18.0-0.15-0.15",0,"You give a presentation at work and it seems like no one is paying attention","external_global",199,"negative",FALSE,"People are often bored during work presentations","html-button-response-ca",61,4691,2052638,1,15,"control","causal",2229468,1750232.90000001,2041439.30000001,64,1,2,0,1,0,0,1,0
"41","subCALEARN_1",0,"0.0-18.0-0.16-0.16",0,"You ask a friend for help with something important but they say they are too busy","external_global",201,"negative",FALSE,"Sometimes people are too busy or preocuppied to be as good a friend as they'd like","html-button-response-ca",67,7484,2062793,1,16,"control","causal",2229468,1750232.90000001,2041439.30000001,64,1,2,0,1,0,0,1,0
"42","subCALEARN_1",0,"0.0-18.0-0.17-0.17",0,"You receive an excellent performance evaluation from your boss","internal_global",202,"positive",FALSE,"I'm good at my job","html-button-response-ca",73,2767,2067073,1,17,"control","causal",2229468,1750232.90000001,2041439.30000001,64,1,2,1,1,1,0,0,0
"43","subCALEARN_1",3,"0.0-18.0-0.18-0.18",0,"A friend tells you that you are being difficult","internal_specific",203,"negative",FALSE,"During my last conversation with this person, I may have come across as rude or uncaring","html-button-response-ca",75,40023,2108621,1,18,"control","causal",2229468,1750232.90000001,2041439.30000001,64,1,2,1,0,0,1,0,0
"44","subCALEARN_1",2,"0.0-18.0-0.19-0.19",0,"You find out that colleague has scored you poorly on a a performance evaluation","external_global",204,"negative",FALSE,"Everyone probably scored low","html-button-response-ca",76,9089,2119226,1,19,"control","causal",2229468,1750232.90000001,2041439.30000001,64,1,2,0,1,0,0,1,0
"45","subCALEARN_1",0,"0.0-18.0-0.2-0.2",0,"You start doing the washing up but drop and smash a plate","internal_global",186,"negative",FALSE,"I'm clumsy and careless","html-button-response-ca",25,5450,1924405,1,2,"control","causal",2229468,1750232.90000001,2041439.30000001,64,1,2,1,1,1,0,0,0
"46","subCALEARN_1",0,"0.0-18.0-0.20-0.20",0,"You find out you passed a difficult test for a professional qualification you wanted","internal_global",205,"positive",FALSE,"I'm smart and work hard","html-button-response-ca",77,4694,2125423,1,20,"control","causal",2229468,1750232.90000001,2041439.30000001,64,1,2,1,1,1,0,0,0
"47","subCALEARN_1",2,"0.0-18.0-0.21-0.21",0,"A friend tells you you are a good friend to them","internal_global",206,"positive",FALSE,"I'm a good friend","html-button-response-ca",78,3968,2130893,1,21,"control","causal",2229468,1750232.90000001,2041439.30000001,64,1,2,1,1,1,0,0,0
"48","subCALEARN_1",0,"0.0-18.0-0.22-0.22",0,"You aren't nominated for an award recognizing contribution to workplace culture","external_global",207,"negative",FALSE,"Other people aren't always very good at recognising each others' contributions","html-button-response-ca",83,8606,2141011,1,22,"control","causal",2229468,1750232.90000001,2041439.30000001,64,1,2,0,1,0,0,1,0
"49","subCALEARN_1",1,"0.0-18.0-0.23-0.23",0,"Someone from work tells you they consider you trustworthy","internal_global",208,"positive",FALSE,"Even people I don't know that well generally think well of me","html-button-response-ca",84,6663,2149193,1,23,"control","causal",2229468,1750232.90000001,2041439.30000001,64,1,2,1,1,1,0,0,0
"50","subCALEARN_1",1,"0.0-18.0-0.24-0.24",0,"You find yourself struggling to meet your targets at work","external_specific",209,"negative",FALSE,"This week, there happened to be more important things happening","html-button-response-ca",97,7324,2158032,1,24,"control","causal",2229468,1750232.90000001,2041439.30000001,64,1,2,0,0,0,0,0,1
"51","subCALEARN_1",3,"0.0-18.0-0.25-0.25",0,"Someone you care deeply about is not responding to your calls and messages","external_specific",210,"negative",FALSE,"This person is probably not able to respond right now (e.g., they are unwell or away)","html-button-response-ca",100,9961,2169516,1,25,"control","causal",2229468,1750232.90000001,2041439.30000001,64,1,2,0,0,0,0,0,1
"52","subCALEARN_1",0,"0.0-18.0-0.26-0.26",0,"A letter you have written to the newspaper is selected to be published","internal_specific",211,"positive",FALSE,"On this particular occasion, I had something important to say","html-button-response-ca",102,6471,2177509,1,26,"control","causal",2229468,1750232.90000001,2041439.30000001,64,1,2,1,0,0,1,0,0
"53","subCALEARN_1",2,"0.0-18.0-0.27-0.27",0,"You find out a friend is having a party but hasn't invited you","internal_global",212,"negative",FALSE,"Deep down, people I consider my friends don't actually like me","html-button-response-ca",108,9211,2188235,1,27,"control","causal",2229468,1750232.90000001,2041439.30000001,64,1,2,1,1,1,0,0,0
"54","subCALEARN_1",1,"0.0-18.0-0.28-0.28",0,"Someone you are close to tells you they wish they were more like you","internal_global",213,"positive",FALSE,"People I'm close to think well of me","html-button-response-ca",110,15457,2205211,1,28,"control","causal",2229468,1750232.90000001,2041439.30000001,64,1,2,1,1,1,0,0,0
"55","subCALEARN_1",1,"0.0-18.0-0.29-0.29",0,"A friend tells you you are a good person","internal_global",214,"positive",FALSE,"My friends think highly of me","html-button-response-ca",115,9028,2215769,1,29,"control","causal",2229468,1750232.90000001,2041439.30000001,64,1,2,1,1,1,0,0,0
"56","subCALEARN_1",2,"0.0-18.0-0.3-0.3",0,"You speak during a neighbourhood association meeting and receive applause","internal_specific",187,"positive",FALSE,"On this occasion, I made some good points","html-button-response-ca",28,6552,1932463,1,3,"control","causal",2229468,1750232.90000001,2041439.30000001,64,1,2,1,0,0,1,0,0
"57","subCALEARN_1",1,"0.0-18.0-0.30-0.30",0,"A friend calls you up out of the blue to see how you are","external_specific",215,"positive",FALSE,"My friend was probably reminded to contact me by someone else","html-button-response-ca",120,5879,2223150,1,30,"control","causal",2229468,1750232.90000001,2041439.30000001,64,1,2,0,0,0,0,0,1
"58","subCALEARN_1",3,"0.0-18.0-0.31-0.31",0,"You find out that you didn't pass a test you took that counts towards a professional exam","internal_specific",216,"negative",FALSE,"I probably didn't spend enough time studying for the test","html-button-response-ca",125,4815,2229468,1,31,"control","causal",2229468,1750232.90000001,2041439.30000001,64,1,2,1,0,0,1,0,0
"59","subCALEARN_1",1,"0.0-18.0-0.4-0.4",0,"A colleague tells you they like your company","internal_specific",188,"positive",FALSE,"I seem to click well with this particular person","html-button-response-ca",29,5403,1939386,1,4,"control","causal",2229468,1750232.90000001,2041439.30000001,64,1,2,1,0,0,1,0,0
"60","subCALEARN_1",0,"0.0-18.0-0.5-0.5",0,"Someone you are close to tells you that they admire you","internal_global",189,"positive",FALSE,"People I care about look up to me","html-button-response-ca",31,11903,1952807,1,5,"control","causal",2229468,1750232.90000001,2041439.30000001,64,1,2,1,1,1,0,0,0
"61","subCALEARN_1",2,"0.0-18.0-0.6-0.6",0,"You complete today's crossword easily","external_specific",190,"positive",FALSE,"This particular puzzle was probably quite easy","html-button-response-ca",35,7523,1961843,1,6,"control","causal",2229468,1750232.90000001,2041439.30000001,64,1,2,0,0,0,0,0,1
"62","subCALEARN_1",0,"0.0-18.0-0.7-0.7",0,"You struggle to work out what everyone needs to pay when booking a work activity","external_specific",191,"negative",FALSE,"This problem was too complicated to work out without writing everything out","html-button-response-ca",37,11031,1974390,1,7,"control","causal",2229468,1750232.90000001,2041439.30000001,64,1,2,0,0,0,0,0,1
"63","subCALEARN_1",3,"0.0-18.0-0.8-0.8",0,"You discover that you haven't been invited to an after-work social event","internal_specific",192,"negative",FALSE,"I haven't shown any interest in work events recently","html-button-response-ca",44,5047,1980948,1,8,"control","causal",2229468,1750232.90000001,2041439.30000001,64,1,2,1,0,0,1,0,0
"64","subCALEARN_1",0,"0.0-18.0-0.9-0.9",0,"You present your work to the rest of your evening class but it doesn't receive much positive feedback","internal_global",193,"negative",FALSE,"My ideas are not interesting","html-button-response-ca",45,8183,1990640,1,9,"control","causal",2229468,1750232.90000001,2041439.30000001,64,1,2,1,1,1,0,0,0
"65","subCALEARN_2",3,"0.0-2.0-0.0-0.0",0,"You find out that someone you consider a friend has talked about you negatively behind your back","internal_global",3,"negative",FALSE,"Deep down, my friends don't really like me","html-button-response-ca",0,31322,263438,0,0,"psychoed","causal",3646243,2833463,3295501.5999999,64,2,1,1,1,1,0,0,0
"66","subCALEARN_2",1,"0.0-2.0-0.1-0.1",0,"Someone from work invites you out for a cup of coffee","external_global",4,"positive",FALSE,"People at work generally reach out from time to time","html-button-response-ca",1,20558,285519,0,1,"psychoed","causal",3646243,2833463,3295501.5999999,64,2,1,0,1,0,0,1,0
"67","subCALEARN_2",3,"0.0-2.0-0.10-0.10",0,"You didn't get the amount of work done you needed to","internal_specific",13,"negative",FALSE,"I probably dedicated too much time to unimportant tasks this week","html-button-response-ca",18,18318,486530,0,10,"psychoed","causal",3646243,2833463,3295501.5999999,64,2,1,1,0,0,1,0,0
"68","subCALEARN_2",0,"0.0-2.0-0.11-0.11",0,"You walk past a cafe close to work and see your some of your colleagues are meeting for lunch without you","external_specific",14,"negative",FALSE,"My colleagues were probably meeting about a specific work project I'm not part of","html-button-response-ca",22,22221,510264,0,11,"psychoed","causal",3646243,2833463,3295501.5999999,64,2,1,0,0,0,0,0,1
"69","subCALEARN_2",3,"0.0-2.0-0.12-0.12",0,"A friend tells you you make them laugh","internal_specific",15,"positive",FALSE,"I can usually say something to make this particular person laugh","html-button-response-ca",24,21009,532784,0,12,"psychoed","causal",3646243,2833463,3295501.5999999,64,2,1,1,0,0,1,0,0
"70","subCALEARN_2",1,"0.0-2.0-0.13-0.13",0,"A friend tells you speaking with you always makes them feel better","internal_global",16,"positive",FALSE,"I'm the kind of friend people value","html-button-response-ca",32,21296,555584,0,13,"psychoed","causal",3646243,2833463,3295501.5999999,64,2,1,1,1,1,0,0,0
"71","subCALEARN_2",3,"0.0-2.0-0.14-0.14",0,"You find out that you have been put forward for a leadership position at work","internal_global",17,"positive",FALSE,"My colleagues respect my skill at work","html-button-response-ca",39,29669,586763,0,14,"psychoed","causal",3646243,2833463,3295501.5999999,64,2,1,1,1,1,0,0,0
"72","subCALEARN_2",0,"0.0-2.0-0.15-0.15",0,"You submitted an application to join a local community forum but haven't heard anything back","external_specific",18,"negative",FALSE,"This time, my application was probably delayed for some reason","html-button-response-ca",41,23868,612150,0,15,"psychoed","causal",3646243,2833463,3295501.5999999,64,2,1,0,0,0,0,0,1
"73","subCALEARN_2",2,"0.0-2.0-0.16-0.16",0,"Someone you are close to has sent you a card thanking you for being there for them during a difficult time","external_global",20,"positive",FALSE,"It's not uncommon for people to do nice things for their friends","html-button-response-ca",43,18090,639451,0,16,"psychoed","causal",3646243,2833463,3295501.5999999,64,2,1,0,1,0,0,1,0
"74","subCALEARN_2",3,"0.0-2.0-0.17-0.17",0,"You find out someone has contacted your employer to praise work you did for them","external_global",21,"positive",FALSE,"Some people are just nice and like to give positive feedback","html-button-response-ca",54,17018,657973,0,17,"psychoed","causal",3646243,2833463,3295501.5999999,64,2,1,0,1,0,0,1,0
"75","subCALEARN_2",3,"0.0-2.0-0.18-0.18",0,"You successfully practice saying some phrases of a new language you are trying to learn","internal_specific",22,"positive",FALSE,"I've been making a particular effort recently to spend time learning new things","html-button-response-ca",62,22717,682209,0,18,"psychoed","causal",3646243,2833463,3295501.5999999,64,2,1,1,0,0,1,0,0
"76","subCALEARN_2",2,"0.0-2.0-0.19-0.19",0,"Someone you are close to tells you they trust you","internal_global",23,"positive",FALSE,"I'm a trustworthy person","html-button-response-ca",68,16925,700666,0,19,"psychoed","causal",3646243,2833463,3295501.5999999,64,2,1,1,1,1,0,0,0
"77","subCALEARN_2",1,"0.0-2.0-0.2-0.2",0,"You message your friend to ask for advice but they don't reply","external_specific",5,"negative",FALSE,"My friend is probably just too busy to respond right now","html-button-response-ca",2,11579,298622,0,2,"psychoed","causal",3646243,2833463,3295501.5999999,64,2,1,0,0,0,0,0,1
"78","subCALEARN_2",1,"0.0-2.0-0.20-0.20",0,"You speak during a community meeting but feel like people aren't interested in what you have to say","internal_specific",24,"negative",FALSE,"For this speech, my ideas weren't put together very well","html-button-response-ca",72,31818,733988,0,20,"psychoed","causal",3646243,2833463,3295501.5999999,64,2,1,1,0,0,1,0,0
"79","subCALEARN_2",1,"0.0-2.0-0.21-0.21",0,"You washed your clothes on the wrong setting and the colours have run","internal_specific",25,"negative",FALSE,"On this occasion, I wasn't paying enough attention","html-button-response-ca",74,14298,749800,0,21,"psychoed","causal",3646243,2833463,3295501.5999999,64,2,1,1,0,0,1,0,0
"80","subCALEARN_2",1,"0.0-2.0-0.22-0.22",0,"You see a very close friend and wave at them but they don't wave back","external_specific",26,"negative",FALSE,"My friend was probably busy that day thinking about something else","html-button-response-ca",79,18100,769407,0,22,"psychoed","causal",3646243,2833463,3295501.5999999,64,2,1,0,0,0,0,0,1
"81","subCALEARN_2",3,"0.0-2.0-0.23-0.23",0,"A colleague comments on the high quality of your recent work","internal_specific",27,"positive",FALSE,"For this piece of work, I probably tried particularly hard","html-button-response-ca",93,10287,781214,0,23,"psychoed","causal",3646243,2833463,3295501.5999999,64,2,1,1,0,0,1,0,0
"82","subCALEARN_2",1,"0.0-2.0-0.24-0.24",0,"You want to be nominated for a role in your local community group but no one suggests you","internal_specific",28,"negative",FALSE,"Recently, I haven't been involved much in community events","html-button-response-ca",99,20238,802970,0,24,"psychoed","causal",3646243,2833463,3295501.5999999,64,2,1,1,0,0,1,0,0
"83","subCALEARN_2",1,"0.0-2.0-0.25-0.25",0,"Someone from work tells you they would like to be on your team for a work social event","external_global",29,"positive",FALSE,"Colleagues generally try and include everyone in team events","html-button-response-ca",101,31086,835568,0,25,"psychoed","causal",3646243,2833463,3295501.5999999,64,2,1,0,1,0,0,1,0
"84","subCALEARN_2",2,"0.0-2.0-0.26-0.26",0,"Someone you care about takes time out of their busy day to check in on you ","external_global",30,"positive",FALSE,"It's not uncommon for people to do nice things for their friends","html-button-response-ca",104,14861,851938,0,26,"psychoed","causal",3646243,2833463,3295501.5999999,64,2,1,0,1,0,0,1,0
"85","subCALEARN_2",1,"0.0-2.0-0.27-0.27",0,"You forget you have put dinner in the oven and it burns","internal_specific",31,"negative",FALSE,"On this occasion, I let myself be distracted by something unimportant","html-button-response-ca",105,15831,869276,0,27,"psychoed","causal",3646243,2833463,3295501.5999999,64,2,1,1,0,0,1,0,0
"86","subCALEARN_2",1,"0.0-2.0-0.28-0.28",0,"You overhear a colleague telling someone else they don't like you","external_global",32,"negative",FALSE,"People often carelessly say things about others when they think they can't hear them","html-button-response-ca",112,14915,885709,0,28,"psychoed","causal",3646243,2833463,3295501.5999999,64,2,1,0,1,0,0,1,0
"87","subCALEARN_2",0,"0.0-2.0-0.29-0.29",0,"A colleague tells you they particularly appreciate your feedback on their work, as it is valuable","external_global",33,"positive",FALSE,"People generally like to get lots of feedback","html-button-response-ca",113,39093,926325,0,29,"psychoed","causal",3646243,2833463,3295501.5999999,64,2,1,0,1,0,0,1,0
"88","subCALEARN_2",3,"0.0-2.0-0.3-0.3",0,"You return from the shops without something important from your shopping list","external_specific",6,"negative",FALSE,"Someone or something probably distracted me that time","html-button-response-ca",3,35587,335723,0,3,"psychoed","causal",3646243,2833463,3295501.5999999,64,2,1,0,0,0,0,0,1
"89","subCALEARN_2",0,"0.0-2.0-0.30-0.30",0,"You find out a colleague has nominated you for a performance award at work","internal_specific",34,"positive",FALSE,"I worked hard on a recent piece of work","html-button-response-ca",116,11703,939547,0,30,"psychoed","causal",3646243,2833463,3295501.5999999,64,2,1,1,0,0,1,0,0
"90","subCALEARN_2",1,"0.0-2.0-0.31-0.31",0,"You present your work during your evening class and get lots of praise from your classmates","external_global",35,"positive",FALSE,"In general, people tend to be polite about other people's work","html-button-response-ca",127,18034,959102,0,31,"psychoed","causal",3646243,2833463,3295501.5999999,64,2,1,0,1,0,0,1,0
"91","subCALEARN_2",2,"0.0-2.0-0.4-0.4",0,"You'd like to be more engaged in your local community","external_specific",7,"negative",FALSE,"Recently, there were a lot of other things going on","html-button-response-ca",5,35030,372277,0,4,"psychoed","causal",3646243,2833463,3295501.5999999,64,2,1,0,0,0,0,0,1
"92","subCALEARN_2",0,"0.0-2.0-0.5-0.5",0,"Your suggestion for a community social event receives the lowest number of votes","external_specific",8,"negative",FALSE,"There probably happened to be a better suggestion put forward that day","html-button-response-ca",7,22690,396492,0,5,"psychoed","causal",3646243,2833463,3295501.5999999,64,2,1,0,0,0,0,0,1
"93","subCALEARN_2",0,"0.0-2.0-0.6-0.6",0,"You receive anonymised feedback on your work performance by colleagues, and it's very complimentary","internal_specific",9,"positive",FALSE,"Recently, I did well on a particular piece of work","html-button-response-ca",8,16798,414803,0,6,"psychoed","causal",3646243,2833463,3295501.5999999,64,2,1,1,0,0,1,0,0
"94","subCALEARN_2",2,"0.0-2.0-0.7-0.7",0,"Someone you feel very close to is having a birthday dinner but hasn't invited you","external_specific",10,"negative",FALSE,"For this particular occasion, they were only able to invite a small number of people","html-button-response-ca",13,16265,432585,0,7,"psychoed","causal",3646243,2833463,3295501.5999999,64,2,1,0,0,0,0,0,1
"95","subCALEARN_2",1,"0.0-2.0-0.8-0.8",0,"You find out that your manager wants to put you forward for promotion at work","internal_global",11,"positive",FALSE,"I'm good at my job","html-button-response-ca",15,14107,448201,0,8,"psychoed","causal",3646243,2833463,3295501.5999999,64,2,1,1,1,1,0,0,0
"96","subCALEARN_2",3,"0.0-2.0-0.9-0.9",0,"You smile at someone across the street you recognise, but they don't smile back","external_specific",12,"negative",FALSE,"They were probably preoccupied and didn't see me","html-button-response-ca",17,16994,466708,0,9,"psychoed","causal",3646243,2833463,3295501.5999999,64,2,1,0,0,0,0,0,1
"97","subCALEARN_2",2,"0.0-18.0-0.0-0.0",0,"You take part in a quiz at work and get lots of answers right, so your team wins","internal_global",188,"positive",FALSE,"I'm smart","html-button-response-ca",11,7822,3283616,1,0,"psychoed","causal",3646243,2833463,3295501.5999999,64,2,1,1,1,1,0,0,0
"98","subCALEARN_2",2,"0.0-18.0-0.1-0.1",0,"Your neighbour asks you to help them with their maths homework, and you do a good job explaining the problems to them","internal_global",189,"positive",FALSE,"I'm intelligent","html-button-response-ca",21,8801,3293924,1,1,"psychoed","causal",3646243,2833463,3295501.5999999,64,2,1,1,1,1,0,0,0
"99","subCALEARN_2",3,"0.0-18.0-0.10-0.10",0,"Someone you are close to tells you you are not funny","external_specific",198,"negative",FALSE,"This particular person probably doesn't have a similar sense of humour to me","html-button-response-ca",47,11488,3399209,1,10,"psychoed","causal",3646243,2833463,3295501.5999999,64,2,1,0,0,0,0,0,1
"100","subCALEARN_2",0,"0.0-18.0-0.11-0.11",0,"Someone you work with tells you they trust your judgement","internal_global",199,"positive",FALSE,"People I work with generally respect my judgement","html-button-response-ca",53,14411,3415125,1,11,"psychoed","causal",3646243,2833463,3295501.5999999,64,2,1,1,1,1,0,0,0
"101","subCALEARN_2",0,"0.0-18.0-0.12-0.12",0,"Someone you care about deeply has disclosed something you told them in confidence to someone else","internal_specific",200,"negative",FALSE,"I have probably done something recently to offend this person","html-button-response-ca",55,12078,3428707,1,12,"psychoed","causal",3646243,2833463,3295501.5999999,64,2,1,1,0,0,1,0,0
"102","subCALEARN_2",2,"0.0-18.0-0.13-0.13",0,"Someone you are close to tells you they consider you a role model","internal_global",201,"positive",FALSE,"I'm the kind of person people look up to","html-button-response-ca",56,8153,3438374,1,13,"psychoed","causal",3646243,2833463,3295501.5999999,64,2,1,1,1,1,0,0,0
"103","subCALEARN_2",3,"0.0-18.0-0.14-0.14",0,"You overhear someone at work talking about you behind your back","external_specific",202,"negative",FALSE,"This particular person is probably having a bad day","html-button-response-ca",59,12401,3452282,1,14,"psychoed","causal",3646243,2833463,3295501.5999999,64,2,1,0,0,0,0,0,1
"104","subCALEARN_2",0,"0.0-18.0-0.15-0.15",0,"You give a presentation at work and it seems like no one is paying attention","external_global",203,"negative",FALSE,"People are often bored during work presentations","html-button-response-ca",61,11214,3465023,1,15,"psychoed","causal",3646243,2833463,3295501.5999999,64,2,1,0,1,0,0,1,0
"105","subCALEARN_2",2,"0.0-18.0-0.16-0.16",0,"You ask a friend for help with something important but they say they are too busy","external_global",205,"negative",FALSE,"Sometimes people are too busy or preocuppied to be as good a friend as they'd like","html-button-response-ca",67,12924,3486324,1,16,"psychoed","causal",3646243,2833463,3295501.5999999,64,2,1,0,1,0,0,1,0
"106","subCALEARN_2",0,"0.0-18.0-0.17-0.17",0,"You receive an excellent performance evaluation from your boss","internal_global",206,"positive",FALSE,"I'm good at my job","html-button-response-ca",73,4740,3492572,1,17,"psychoed","causal",3646243,2833463,3295501.5999999,64,2,1,1,1,1,0,0,0
"107","subCALEARN_2",1,"0.0-18.0-0.18-0.18",0,"A friend tells you that you are being difficult","external_specific",207,"negative",FALSE,"My friend is probably having a difficult time right now and is looking for more support from me","html-button-response-ca",75,10771,3504846,1,18,"psychoed","causal",3646243,2833463,3295501.5999999,64,2,1,0,0,0,0,0,1
"108","subCALEARN_2",0,"0.0-18.0-0.19-0.19",0,"You find out that colleague has scored you poorly on a a performance evaluation","external_specific",208,"negative",FALSE,"This colleague probably made a mistake that day (e.g., mistook me for someone else)","html-button-response-ca",76,11916,3518265,1,19,"psychoed","causal",3646243,2833463,3295501.5999999,64,2,1,0,0,0,0,0,1
"109","subCALEARN_2",0,"0.0-18.0-0.2-0.2",0,"You start doing the washing up but drop and smash a plate","internal_specific",190,"negative",FALSE,"At the time, I probably wasn't concentrating enough on what I was doing","html-button-response-ca",25,10372,3305813,1,2,"psychoed","causal",3646243,2833463,3295501.5999999,64,2,1,1,0,0,1,0,0
"110","subCALEARN_2",3,"0.0-18.0-0.20-0.20",0,"You find out you passed a difficult test for a professional qualification you wanted","internal_global",209,"positive",FALSE,"I'm smart and work hard","html-button-response-ca",77,7964,3527734,1,20,"psychoed","causal",3646243,2833463,3295501.5999999,64,2,1,1,1,1,0,0,0
"111","subCALEARN_2",1,"0.0-18.0-0.21-0.21",0,"A friend tells you you are a good friend to them","internal_global",210,"positive",FALSE,"I'm a good friend","html-button-response-ca",78,6721,3535965,1,21,"psychoed","causal",3646243,2833463,3295501.5999999,64,2,1,1,1,1,0,0,0
"112","subCALEARN_2",3,"0.0-18.0-0.22-0.22",0,"You aren't nominated for an award recognizing contribution to workplace culture","external_global",211,"negative",FALSE,"Other people aren't always very good at recognising each others' contributions","html-button-response-ca",83,9172,3546646,1,22,"psychoed","causal",3646243,2833463,3295501.5999999,64,2,1,0,1,0,0,1,0
"113","subCALEARN_2",3,"0.0-18.0-0.23-0.23",0,"Someone from work tells you they consider you trustworthy","internal_global",212,"positive",FALSE,"Even people I don't know that well generally think well of me","html-button-response-ca",84,10216,3558381,1,23,"psychoed","causal",3646243,2833463,3295501.5999999,64,2,1,1,1,1,0,0,0
"114","subCALEARN_2",2,"0.0-18.0-0.24-0.24",0,"You find yourself struggling to meet your targets at work","external_specific",213,"negative",FALSE,"This week, there happened to be more important things happening","html-button-response-ca",97,11483,3571374,1,24,"psychoed","causal",3646243,2833463,3295501.5999999,64,2,1,0,0,0,0,0,1
"115","subCALEARN_2",2,"0.0-18.0-0.25-0.25",0,"Someone you care deeply about is not responding to your calls and messages","external_global",214,"negative",FALSE,"People are often too preocuppied with their own problems to reply to even important messages","html-button-response-ca",100,11233,3584131,1,25,"psychoed","causal",3646243,2833463,3295501.5999999,64,2,1,0,1,0,0,1,0
"116","subCALEARN_2",0,"0.0-18.0-0.26-0.26",0,"A letter you have written to the newspaper is selected to be published","internal_global",215,"positive",FALSE,"People are interested in what I have to say","html-button-response-ca",102,9026,3594669,1,26,"psychoed","causal",3646243,2833463,3295501.5999999,64,2,1,1,1,1,0,0,0
"117","subCALEARN_2",2,"0.0-18.0-0.27-0.27",0,"You find out a friend is having a party but hasn't invited you","external_specific",216,"negative",FALSE,"My friend thought I wasn't free on this specific date","html-button-response-ca",108,10709,3606889,1,27,"psychoed","causal",3646243,2833463,3295501.5999999,64,2,1,0,0,0,0,0,1
"118","subCALEARN_2",2,"0.0-18.0-0.28-0.28",0,"Someone you are close to tells you they wish they were more like you","internal_global",217,"positive",FALSE,"People I'm close to think well of me","html-button-response-ca",110,8686,3617082,1,28,"psychoed","causal",3646243,2833463,3295501.5999999,64,2,1,1,1,1,0,0,0
"119","subCALEARN_2",0,"0.0-18.0-0.29-0.29",0,"A friend tells you you are a good person","internal_global",218,"positive",FALSE,"My friends think highly of me","html-button-response-ca",115,8675,3627265,1,29,"psychoed","causal",3646243,2833463,3295501.5999999,64,2,1,1,1,1,0,0,0
"120","subCALEARN_2",3,"0.0-18.0-0.3-0.3",0,"You speak during a neighbourhood association meeting and receive applause","internal_global",191,"positive",FALSE,"I'm a good communicator","html-button-response-ca",28,8070,3315395,1,3,"psychoed","causal",3646243,2833463,3295501.5999999,64,2,1,1,1,1,0,0,0
"121","subCALEARN_2",1,"0.0-18.0-0.30-0.30",0,"A friend calls you up out of the blue to see how you are","internal_global",219,"positive",FALSE,"My friends care about me","html-button-response-ca",120,6353,3635128,1,30,"psychoed","causal",3646243,2833463,3295501.5999999,64,2,1,1,1,1,0,0,0
"122","subCALEARN_2",2,"0.0-18.0-0.31-0.31",0,"You find out that you didn't pass a test you took that counts towards a professional exam","internal_specific",220,"negative",FALSE,"I probably didn't spend enough time studying for the test","html-button-response-ca",125,9601,3646242,1,31,"psychoed","causal",3646243,2833463,3295501.5999999,64,2,1,1,0,0,1,0,0
"123","subCALEARN_2",1,"0.0-18.0-0.4-0.4",0,"A colleague tells you they like your company","internal_global",192,"positive",FALSE,"I'm a fun person to be around","html-button-response-ca",29,9269,3326171,1,4,"psychoed","causal",3646243,2833463,3295501.5999999,64,2,1,1,1,1,0,0,0
"124","subCALEARN_2",2,"0.0-18.0-0.5-0.5",0,"Someone you are close to tells you that they admire you","internal_global",193,"positive",FALSE,"People I care about look up to me","html-button-response-ca",31,8602,3336293,1,5,"psychoed","causal",3646243,2833463,3295501.5999999,64,2,1,1,1,1,0,0,0
"125","subCALEARN_2",2,"0.0-18.0-0.6-0.6",0,"You complete today's crossword easily","internal_global",194,"positive",FALSE,"I'm quick-witted","html-button-response-ca",35,9634,3347432,1,6,"psychoed","causal",3646243,2833463,3295501.5999999,64,2,1,1,1,1,0,0,0
"126","subCALEARN_2",3,"0.0-18.0-0.7-0.7",0,"You struggle to work out what everyone needs to pay when booking a work activity","internal_specific",195,"negative",FALSE,"This time, I didn't feel like persevering with solving the problem","html-button-response-ca",37,9958,3358904,1,7,"psychoed","causal",3646243,2833463,3295501.5999999,64,2,1,1,0,0,1,0,0
"127","subCALEARN_2",0,"0.0-18.0-0.8-0.8",0,"You discover that you haven't been invited to an after-work social event","external_specific",196,"negative",FALSE,"My colleagues probably thought I was too busy at the time","html-button-response-ca",44,9531,3369940,1,8,"psychoed","causal",3646243,2833463,3295501.5999999,64,2,1,0,0,0,0,0,1
"128","subCALEARN_2",3,"0.0-18.0-0.9-0.9",0,"You present your work to the rest of your evening class but it doesn't receive much positive feedback","external_specific",197,"negative",FALSE,"On this occasion, people may have been preocuppied with something else (e.g., their own presentations)","html-button-response-ca",45,14760,3386204,1,9,"psychoed","causal",3646243,2833463,3295501.5999999,64,2,1,0,0,0,0,0,1
"129","subCALEARN_3",0,"0.0-2.0-0.0-0.0",0,"You find out that someone you consider a friend has talked about you negatively behind your back","internal_global",3,"negative",FALSE,"Deep down, my friends don't really like me","html-button-response-ca",0,10694,122845,0,0,"control","causal",3237799,2812581.6,3014498.1,64,3,2,1,1,1,0,0,0
"130","subCALEARN_3",2,"0.0-2.0-0.1-0.1",0,"Someone from work invites you out for a cup of coffee","internal_specific",4,"positive",FALSE,"I've made a particular effort to talk to this person recently","html-button-response-ca",1,6567,130935,0,1,"control","causal",3237799,2812581.6,3014498.1,64,3,2,1,0,0,1,0,0
"131","subCALEARN_3",2,"0.0-2.0-0.10-0.10",0,"You didn't get the amount of work done you needed to","internal_global",13,"negative",FALSE,"I'm disorganised and inefficient","html-button-response-ca",18,5939,209372,0,10,"control","causal",3237799,2812581.6,3014498.1,64,3,2,1,1,1,0,0,0
"132","subCALEARN_3",0,"0.0-2.0-0.11-0.11",0,"You walk past a cafe close to work and see your some of your colleagues are meeting for lunch without you","internal_global",14,"negative",FALSE,"People generally don't like me","html-button-response-ca",22,184940,395809,0,11,"control","causal",3237799,2812581.6,3014498.1,64,3,2,1,1,1,0,0,0
"133","subCALEARN_3",1,"0.0-2.0-0.12-0.12",0,"A friend tells you you make them laugh","external_global",15,"positive",FALSE,"People generally compliment their friends from time to time","html-button-response-ca",24,3850,401186,0,12,"control","causal",3237799,2812581.6,3014498.1,64,3,2,0,1,0,0,1,0
"134","subCALEARN_3",1,"0.0-2.0-0.13-0.13",0,"A friend tells you speaking with you always makes them feel better","external_specific",16,"positive",FALSE,"My friend was probably trying to boost me up for some reason","html-button-response-ca",32,6363,409076,0,13,"control","causal",3237799,2812581.6,3014498.1,64,3,2,0,0,0,0,0,1
"135","subCALEARN_3",0,"0.0-2.0-0.14-0.14",0,"You find out that you have been put forward for a leadership position at work","internal_specific",17,"positive",FALSE,"Recently, I've been performing well in my job","html-button-response-ca",39,122285,532870,0,14,"control","causal",3237799,2812581.6,3014498.1,64,3,2,1,0,0,1,0,0
"136","subCALEARN_3",3,"0.0-2.0-0.15-0.15",0,"You submitted an application to join a local community forum but haven't heard anything back","internal_global",18,"negative",FALSE,"Something about me puts people off","html-button-response-ca",41,5309,539730,0,15,"control","causal",3237799,2812581.6,3014498.1,64,3,2,1,1,1,0,0,0
"137","subCALEARN_3",3,"0.0-2.0-0.16-0.16",0,"Someone you are close to has sent you a card thanking you for being there for them during a difficult time","internal_global",20,"positive",FALSE,"I'm a good friend and people appreciate that","html-button-response-ca",43,7079,550357,0,16,"control","causal",3237799,2812581.6,3014498.1,64,3,2,1,1,1,0,0,0
"138","subCALEARN_3",3,"0.0-2.0-0.17-0.17",0,"You find out someone has contacted your employer to praise work you did for them","internal_global",21,"positive",FALSE,"I'm good at my job","html-button-response-ca",54,7456,559329,0,17,"control","causal",3237799,2812581.6,3014498.1,64,3,2,1,1,1,0,0,0
"139","subCALEARN_3",0,"0.0-2.0-0.18-0.18",0,"You successfully practice saying some phrases of a new language you are trying to learn","external_specific",22,"positive",FALSE,"The test material was probably quite easy","html-button-response-ca",62,5525,566384,0,18,"control","causal",3237799,2812581.6,3014498.1,64,3,2,0,0,0,0,0,1
"140","subCALEARN_3",1,"0.0-2.0-0.19-0.19",0,"Someone you are close to tells you they trust you","internal_global",23,"positive",FALSE,"I'm a trustworthy person","html-button-response-ca",68,10054,577953,0,19,"control","causal",3237799,2812581.6,3014498.1,64,3,2,1,1,1,0,0,0
"141","subCALEARN_3",2,"0.0-2.0-0.2-0.2",0,"You message your friend to ask for advice but they don't reply","internal_global",5,"negative",FALSE,"I'm never a priority for my friends","html-button-response-ca",2,7869,140330,0,2,"control","causal",3237799,2812581.6,3014498.1,64,3,2,1,1,1,0,0,0
"142","subCALEARN_3",2,"0.0-2.0-0.20-0.20",0,"You speak during a community meeting but feel like people aren't interested in what you have to say","internal_global",24,"negative",FALSE,"I am not interesting","html-button-response-ca",72,7501,586987,0,20,"control","causal",3237799,2812581.6,3014498.1,64,3,2,1,1,1,0,0,0
"143","subCALEARN_3",3,"0.0-2.0-0.21-0.21",0,"You washed your clothes on the wrong setting and the colours have run","internal_global",25,"negative",FALSE,"I mess everything up, even simple things","html-button-response-ca",74,19239,607756,0,21,"control","causal",3237799,2812581.6,3014498.1,64,3,2,1,1,1,0,0,0
"144","subCALEARN_3",3,"0.0-2.0-0.22-0.22",0,"You see a very close friend and wave at them but they don't wave back","external_global",26,"negative",FALSE,"People often miss other people waving at them in the street","html-button-response-ca",79,7083,616364,0,22,"control","causal",3237799,2812581.6,3014498.1,64,3,2,0,1,0,0,1,0
"145","subCALEARN_3",3,"0.0-2.0-0.23-0.23",0,"A colleague comments on the high quality of your recent work","internal_global",27,"positive",FALSE,"I'm skilled at what I do","html-button-response-ca",93,4573,622472,0,23,"control","causal",3237799,2812581.6,3014498.1,64,3,2,1,1,1,0,0,0
"146","subCALEARN_3",3,"0.0-2.0-0.24-0.24",0,"You want to be nominated for a role in your local community group but no one suggests you","internal_global",28,"negative",FALSE,"People don't want to be represented by someone like me","html-button-response-ca",99,26420,650418,0,24,"control","causal",3237799,2812581.6,3014498.1,64,3,2,1,1,1,0,0,0
"147","subCALEARN_3",3,"0.0-2.0-0.25-0.25",0,"Someone from work tells you they would like to be on your team for a work social event","internal_specific",29,"positive",FALSE,"Recently, I have been friendly to this particular colleague","html-button-response-ca",101,7713,659655,0,25,"control","causal",3237799,2812581.6,3014498.1,64,3,2,1,0,0,1,0,0
"148","subCALEARN_3",0,"0.0-2.0-0.26-0.26",0,"Someone you care about takes time out of their busy day to check in on you ","internal_specific",30,"positive",FALSE,"I probably made an effort to check up on this particular person recently","html-button-response-ca",104,7333,668511,0,26,"control","causal",3237799,2812581.6,3014498.1,64,3,2,1,0,0,1,0,0
"149","subCALEARN_3",1,"0.0-2.0-0.27-0.27",0,"You forget you have put dinner in the oven and it burns","internal_specific",31,"negative",FALSE,"On this occasion, I let myself be distracted by something unimportant","html-button-response-ca",105,5525,675556,0,27,"control","causal",3237799,2812581.6,3014498.1,64,3,2,1,0,0,1,0,0
"150","subCALEARN_3",0,"0.0-2.0-0.28-0.28",0,"You overhear a colleague telling someone else they don't like you","internal_global",32,"negative",FALSE,"People don't tend to like me","html-button-response-ca",112,26891,703962,0,28,"control","causal",3237799,2812581.6,3014498.1,64,3,2,1,1,1,0,0,0
"151","subCALEARN_3",2,"0.0-2.0-0.29-0.29",0,"A colleague tells you they particularly appreciate your feedback on their work, as it is valuable","internal_specific",33,"positive",FALSE,"Recently, I've taken the time to help out this colleage with their work","html-button-response-ca",113,19114,724600,0,29,"control","causal",3237799,2812581.6,3014498.1,64,3,2,1,0,0,1,0,0
"152","subCALEARN_3",3,"0.0-2.0-0.3-0.3",0,"You return from the shops without something important from your shopping list","internal_global",6,"negative",FALSE,"I'm hopeless at remembering things","html-button-response-ca",3,7063,148914,0,3,"control","causal",3237799,2812581.6,3014498.1,64,3,2,1,1,1,0,0,0
"153","subCALEARN_3",0,"0.0-2.0-0.30-0.30",0,"You find out a colleague has nominated you for a performance award at work","internal_global",34,"positive",FALSE,"I'm good at my job","html-button-response-ca",116,3277,729392,0,30,"control","causal",3237799,2812581.6,3014498.1,64,3,2,1,1,1,0,0,0
"154","subCALEARN_3",2,"0.0-2.0-0.31-0.31",0,"You present your work during your evening class and get lots of praise from your classmates","external_specific",35,"positive",FALSE,"This particular class are kind","html-button-response-ca",127,27705,758619,0,31,"control","causal",3237799,2812581.6,3014498.1,64,3,2,0,0,0,0,0,1
"155","subCALEARN_3",2,"0.0-2.0-0.4-0.4",0,"You'd like to be more engaged in your local community","internal_specific",7,"negative",FALSE,"Recently, I haven't made much effort with people in my neighbourhood","html-button-response-ca",5,6917,157360,0,4,"control","causal",3237799,2812581.6,3014498.1,64,3,2,1,0,0,1,0,0
"156","subCALEARN_3",3,"0.0-2.0-0.5-0.5",0,"Your suggestion for a community social event receives the lowest number of votes","internal_specific",8,"negative",FALSE,"I probably didn't come up with a good enough idea this time","html-button-response-ca",7,8150,167028,0,5,"control","causal",3237799,2812581.6,3014498.1,64,3,2,1,0,0,1,0,0
"157","subCALEARN_3",1,"0.0-2.0-0.6-0.6",0,"You receive anonymised feedback on your work performance by colleagues, and it's very complimentary","external_global",9,"positive",FALSE,"People are generally positive in work feedback","html-button-response-ca",8,6922,175484,0,6,"control","causal",3237799,2812581.6,3014498.1,64,3,2,0,1,0,0,1,0
"158","subCALEARN_3",2,"0.0-2.0-0.7-0.7",0,"Someone you feel very close to is having a birthday dinner but hasn't invited you","internal_global",10,"negative",FALSE,"People I feel close to don't actually like me","html-button-response-ca",13,9907,186910,0,7,"control","causal",3237799,2812581.6,3014498.1,64,3,2,1,1,1,0,0,0
"159","subCALEARN_3",0,"0.0-2.0-0.8-0.8",0,"You find out that your manager wants to put you forward for promotion at work","internal_global",11,"positive",FALSE,"I'm good at my job","html-button-response-ca",15,5884,194320,0,8,"control","causal",3237799,2812581.6,3014498.1,64,3,2,1,1,1,0,0,0
"160","subCALEARN_3",1,"0.0-2.0-0.9-0.9",0,"You smile at someone across the street you recognise, but they don't smile back","external_specific",12,"negative",FALSE,"They were probably preoccupied and didn't see me","html-button-response-ca",17,6073,201909,0,9,"control","causal",3237799,2812581.6,3014498.1,64,3,2,0,0,0,0,0,1
"161","subCALEARN_3",2,"0.0-18.0-0.0-0.0",0,"You take part in a quiz at work and get lots of answers right, so your team wins","internal_specific",206,"positive",FALSE,"On this occasion, I knew a lot about the topics that came up","html-button-response-ca",11,5551,3017284,1,0,"control","causal",3237799,2812581.6,3014498.1,64,3,2,1,0,0,1,0,0
"162","subCALEARN_3",2,"0.0-18.0-0.1-0.1",0,"Your neighbour asks you to help them with their maths homework, and you do a good job explaining the problems to them","external_specific",207,"positive",FALSE,"This particular homework was quite easy","html-button-response-ca",21,5141,3023943,1,1,"control","causal",3237799,2812581.6,3014498.1,64,3,2,0,0,0,0,0,1
"163","subCALEARN_3",2,"0.0-18.0-0.10-0.10",0,"Someone you are close to tells you you are not funny","external_specific",216,"negative",FALSE,"This particular person probably doesn't have a similar sense of humour to me","html-button-response-ca",47,4604,3084118,1,10,"control","causal",3237799,2812581.6,3014498.1,64,3,2,0,0,0,0,0,1
"164","subCALEARN_3",2,"0.0-18.0-0.11-0.11",0,"Someone you work with tells you they trust your judgement","internal_global",217,"positive",FALSE,"People I work with generally respect my judgement","html-button-response-ca",53,21694,3107354,1,11,"control","causal",3237799,2812581.6,3014498.1,64,3,2,1,1,1,0,0,0
"165","subCALEARN_3",0,"0.0-18.0-0.12-0.12",0,"Someone you care about deeply has disclosed something you told them in confidence to someone else","internal_specific",218,"negative",FALSE,"I have probably done something recently to offend this person","html-button-response-ca",55,5979,3114854,1,12,"control","causal",3237799,2812581.6,3014498.1,64,3,2,1,0,0,1,0,0
"166","subCALEARN_3",1,"0.0-18.0-0.13-0.13",0,"Someone you are close to tells you they consider you a role model","internal_specific",219,"positive",FALSE,"I have recently been helping this particular person work through something","html-button-response-ca",56,6008,3122398,1,13,"control","causal",3237799,2812581.6,3014498.1,64,3,2,1,0,0,1,0,0
"167","subCALEARN_3",2,"0.0-18.0-0.14-0.14",0,"You overhear someone at work talking about you behind your back","internal_specific",220,"negative",FALSE,"I have probably been unkind to this person in some way","html-button-response-ca",59,4275,3128196,1,14,"control","causal",3237799,2812581.6,3014498.1,64,3,2,1,0,0,1,0,0
"168","subCALEARN_3",1,"0.0-18.0-0.15-0.15",0,"You give a presentation at work and it seems like no one is paying attention","external_global",221,"negative",FALSE,"People are often bored during work presentations","html-button-response-ca",61,4522,3134255,1,15,"control","causal",3237799,2812581.6,3014498.1,64,3,2,0,1,0,0,1,0
"169","subCALEARN_3",2,"0.0-18.0-0.16-0.16",0,"You ask a friend for help with something important but they say they are too busy","internal_specific",223,"negative",FALSE,"I haven't been very supportive of this particular person recently","html-button-response-ca",67,5181,3142572,1,16,"control","causal",3237799,2812581.6,3014498.1,64,3,2,1,0,0,1,0,0
"170","subCALEARN_3",2,"0.0-18.0-0.17-0.17",0,"You receive an excellent performance evaluation from your boss","internal_global",224,"positive",FALSE,"I'm good at my job","html-button-response-ca",73,3075,3147190,1,17,"control","causal",3237799,2812581.6,3014498.1,64,3,2,1,1,1,0,0,0
"171","subCALEARN_3",2,"0.0-18.0-0.18-0.18",0,"A friend tells you that you are being difficult","internal_specific",225,"negative",FALSE,"During my last conversation with this person, I may have come across as rude or uncaring","html-button-response-ca",75,4504,3153212,1,18,"control","causal",3237799,2812581.6,3014498.1,64,3,2,1,0,0,1,0,0
"172","subCALEARN_3",2,"0.0-18.0-0.19-0.19",0,"You find out that colleague has scored you poorly on a a performance evaluation","external_global",226,"negative",FALSE,"Everyone probably scored low","html-button-response-ca",76,4140,3158882,1,19,"control","causal",3237799,2812581.6,3014498.1,64,3,2,0,1,0,0,1,0
"173","subCALEARN_3",2,"0.0-18.0-0.2-0.2",0,"You start doing the washing up but drop and smash a plate","internal_global",208,"negative",FALSE,"I'm clumsy and careless","html-button-response-ca",25,5300,3030764,1,2,"control","causal",3237799,2812581.6,3014498.1,64,3,2,1,1,1,0,0,0
"174","subCALEARN_3",3,"0.0-18.0-0.20-0.20",0,"You find out you passed a difficult test for a professional qualification you wanted","internal_global",227,"positive",FALSE,"I'm smart and work hard","html-button-response-ca",77,7323,3167739,1,20,"control","causal",3237799,2812581.6,3014498.1,64,3,2,1,1,1,0,0,0
"175","subCALEARN_3",1,"0.0-18.0-0.21-0.21",0,"A friend tells you you are a good friend to them","internal_global",228,"positive",FALSE,"I'm a good friend","html-button-response-ca",78,2037,3171316,1,21,"control","causal",3237799,2812581.6,3014498.1,64,3,2,1,1,1,0,0,0
"176","subCALEARN_3",2,"0.0-18.0-0.22-0.22",0,"You aren't nominated for an award recognizing contribution to workplace culture","internal_specific",229,"negative",FALSE,"Recently, I haven't tried much to engage with my colleagues","html-button-response-ca",83,6169,3179025,1,22,"control","causal",3237799,2812581.6,3014498.1,64,3,2,1,0,0,1,0,0
"177","subCALEARN_3",3,"0.0-18.0-0.23-0.23",0,"Someone from work tells you they consider you trustworthy","internal_specific",230,"positive",FALSE,"Recently, I have probably helped this colleage out with something private","html-button-response-ca",84,3977,3184529,1,23,"control","causal",3237799,2812581.6,3014498.1,64,3,2,1,0,0,1,0,0
"178","subCALEARN_3",2,"0.0-18.0-0.24-0.24",0,"You find yourself struggling to meet your targets at work","external_specific",231,"negative",FALSE,"This week, there happened to be more important things happening","html-button-response-ca",97,2775,3188828,1,24,"control","causal",3237799,2812581.6,3014498.1,64,3,2,0,0,0,0,0,1
"179","subCALEARN_3",1,"0.0-18.0-0.25-0.25",0,"Someone you care deeply about is not responding to your calls and messages","external_global",232,"negative",FALSE,"People are often too preocuppied with their own problems to reply to even important messages","html-button-response-ca",100,6815,3197176,1,25,"control","causal",3237799,2812581.6,3014498.1,64,3,2,0,1,0,0,1,0
"180","subCALEARN_3",0,"0.0-18.0-0.26-0.26",0,"A letter you have written to the newspaper is selected to be published","internal_global",233,"positive",FALSE,"People are interested in what I have to say","html-button-response-ca",102,4196,3202906,1,26,"control","causal",3237799,2812581.6,3014498.1,64,3,2,1,1,1,0,0,0
"181","subCALEARN_3",1,"0.0-18.0-0.27-0.27",0,"You find out a friend is having a party but hasn't invited you","internal_global",234,"negative",FALSE,"Deep down, people I consider my friends don't actually like me","html-button-response-ca",108,4565,3208996,1,27,"control","causal",3237799,2812581.6,3014498.1,64,3,2,1,1,1,0,0,0
"182","subCALEARN_3",2,"0.0-18.0-0.28-0.28",0,"Someone you are close to tells you they wish they were more like you","internal_specific",235,"positive",FALSE,"Recently, I've made a particular effort to help out this person","html-button-response-ca",110,9858,3220387,1,28,"control","causal",3237799,2812581.6,3014498.1,64,3,2,1,0,0,1,0,0
"183","subCALEARN_3",1,"0.0-18.0-0.29-0.29",0,"A friend tells you you are a good person","internal_global",236,"positive",FALSE,"My friends think highly of me","html-button-response-ca",115,3496,3225388,1,29,"control","causal",3237799,2812581.6,3014498.1,64,3,2,1,1,1,0,0,0
"184","subCALEARN_3",2,"0.0-18.0-0.3-0.3",0,"You speak during a neighbourhood association meeting and receive applause","internal_specific",209,"positive",FALSE,"On this occasion, I made some good points","html-button-response-ca",28,4278,3036561,1,3,"control","causal",3237799,2812581.6,3014498.1,64,3,2,1,0,0,1,0,0
"185","subCALEARN_3",2,"0.0-18.0-0.30-0.30",0,"A friend calls you up out of the blue to see how you are","internal_global",237,"positive",FALSE,"My friends care about me","html-button-response-ca",120,3969,3230868,1,30,"control","causal",3237799,2812581.6,3014498.1,64,3,2,1,1,1,0,0,0
"186","subCALEARN_3",2,"0.0-18.0-0.31-0.31",0,"You find out that you didn't pass a test you took that counts towards a professional exam","internal_specific",238,"negative",FALSE,"I probably didn't spend enough time studying for the test","html-button-response-ca",125,5404,3237799,1,31,"control","causal",3237799,2812581.6,3014498.1,64,3,2,1,0,0,1,0,0
"187","subCALEARN_3",3,"0.0-18.0-0.4-0.4",0,"A colleague tells you they like your company","internal_specific",210,"positive",FALSE,"I seem to click well with this particular person","html-button-response-ca",29,4547,3042642,1,4,"control","causal",3237799,2812581.6,3014498.1,64,3,2,1,0,0,1,0,0
"188","subCALEARN_3",1,"0.0-18.0-0.5-0.5",0,"Someone you are close to tells you that they admire you","internal_specific",211,"positive",FALSE,"Recently I did something my friend is impressed by","html-button-response-ca",31,7097,3051270,1,5,"control","causal",3237799,2812581.6,3014498.1,64,3,2,1,0,0,1,0,0
"189","subCALEARN_3",3,"0.0-18.0-0.6-0.6",0,"You complete today's crossword easily","external_specific",212,"positive",FALSE,"This particular puzzle was probably quite easy","html-button-response-ca",35,3435,3056223,1,6,"control","causal",3237799,2812581.6,3014498.1,64,3,2,0,0,0,0,0,1
"190","subCALEARN_3",3,"0.0-18.0-0.7-0.7",0,"You struggle to work out what everyone needs to pay when booking a work activity","external_specific",213,"negative",FALSE,"This problem was too complicated to work out without writing everything out","html-button-response-ca",37,5815,3063568,1,7,"control","causal",3237799,2812581.6,3014498.1,64,3,2,0,0,0,0,0,1
"191","subCALEARN_3",0,"0.0-18.0-0.8-0.8",0,"You discover that you haven't been invited to an after-work social event","external_global",214,"negative",FALSE,"Everyone forgets to include someone sometimes","html-button-response-ca",44,5238,3070341,1,8,"control","causal",3237799,2812581.6,3014498.1,64,3,2,0,1,0,0,1,0
"192","subCALEARN_3",1,"0.0-18.0-0.9-0.9",0,"You present your work to the rest of your evening class but it doesn't receive much positive feedback","internal_specific",215,"negative",FALSE,"On this occasion, I didn't explain myself very well","html-button-response-ca",45,6113,3077979,1,9,"control","causal",3237799,2812581.6,3014498.1,64,3,2,1,0,0,1,0,0
"193","subCALEARN_4",1,"0.0-2.0-0.0-0.0",0,"You find out that someone you consider a friend has talked about you negatively behind your back","external_specific",3,"negative",FALSE,"My friend was probably just in a bad mood and letting off steam","html-button-response-ca",0,10773,199058,0,0,"control","causal",2600743,1856882.30000001,2237007.30000001,64,4,2,0,0,0,0,0,1
"194","subCALEARN_4",3,"0.0-2.0-0.1-0.1",0,"Someone from work invites you out for a cup of coffee","internal_global",4,"positive",FALSE,"People usually like to include me in things","html-button-response-ca",1,13279,213863,0,1,"control","causal",2600743,1856882.30000001,2237007.30000001,64,4,2,1,1,1,0,0,0
"195","subCALEARN_4",2,"0.0-2.0-0.10-0.10",0,"You didn't get the amount of work done you needed to","external_specific",13,"negative",FALSE,"Just now, there are probably more important things going on","html-button-response-ca",18,10084,329936,0,10,"control","causal",2600743,1856882.30000001,2237007.30000001,64,4,2,0,0,0,0,0,1
"196","subCALEARN_4",1,"0.0-2.0-0.11-0.11",0,"You walk past a cafe close to work and see your some of your colleagues are meeting for lunch without you","external_specific",14,"negative",FALSE,"My colleagues were probably meeting about a specific work project I'm not part of","html-button-response-ca",22,12222,343669,0,11,"control","causal",2600743,1856882.30000001,2237007.30000001,64,4,2,0,0,0,0,0,1
"197","subCALEARN_4",2,"0.0-2.0-0.12-0.12",0,"A friend tells you you make them laugh","external_specific",15,"positive",FALSE,"This particular friend happens to have a similar sense of humour to me","html-button-response-ca",24,8743,353931,0,12,"control","causal",2600743,1856882.30000001,2237007.30000001,64,4,2,0,0,0,0,0,1
"198","subCALEARN_4",3,"0.0-2.0-0.13-0.13",0,"A friend tells you speaking with you always makes them feel better","internal_specific",16,"positive",FALSE,"Recently, I have been making an effort to talk with this particular friend","html-button-response-ca",32,10062,365510,0,13,"control","causal",2600743,1856882.30000001,2237007.30000001,64,4,2,1,0,0,1,0,0
"199","subCALEARN_4",1,"0.0-2.0-0.14-0.14",0,"You find out that you have been put forward for a leadership position at work","internal_specific",17,"positive",FALSE,"Recently, I've been performing well in my job","html-button-response-ca",39,9570,376596,0,14,"control","causal",2600743,1856882.30000001,2237007.30000001,64,4,2,1,0,0,1,0,0
"200","subCALEARN_4",0,"0.0-2.0-0.15-0.15",0,"You submitted an application to join a local community forum but haven't heard anything back","external_global",18,"negative",FALSE,"Application systems are generally complicated and things can get lost","html-button-response-ca",41,8203,386314,0,15,"control","causal",2600743,1856882.30000001,2237007.30000001,64,4,2,0,1,0,0,1,0
"201","subCALEARN_4",1,"0.0-2.0-0.16-0.16",0,"Someone you are close to has sent you a card thanking you for being there for them during a difficult time","internal_specific",20,"positive",FALSE,"Recently, I have made an effort to be there for this particular friend","html-button-response-ca",43,8999,416287,0,16,"control","causal",2600743,1856882.30000001,2237007.30000001,64,4,2,1,0,0,1,0,0
"202","subCALEARN_4",1,"0.0-2.0-0.17-0.17",0,"You find out someone has contacted your employer to praise work you did for them","external_global",21,"positive",FALSE,"Some people are just nice and like to give positive feedback","html-button-response-ca",54,7768,425576,0,17,"control","causal",2600743,1856882.30000001,2237007.30000001,64,4,2,0,1,0,0,1,0
"203","subCALEARN_4",0,"0.0-2.0-0.18-0.18",0,"You successfully practice saying some phrases of a new language you are trying to learn","internal_specific",22,"positive",FALSE,"I've been making a particular effort recently to spend time learning new things","html-button-response-ca",62,10781,437880,0,18,"control","causal",2600743,1856882.30000001,2237007.30000001,64,4,2,1,0,0,1,0,0
"204","subCALEARN_4",0,"0.0-2.0-0.19-0.19",0,"Someone you are close to tells you they trust you","internal_specific",23,"positive",FALSE,"I have been helping this person out with something private recently","html-button-response-ca",68,8336,447736,0,19,"control","causal",2600743,1856882.30000001,2237007.30000001,64,4,2,1,0,0,1,0,0
"205","subCALEARN_4",3,"0.0-2.0-0.2-0.2",0,"You message your friend to ask for advice but they don't reply","external_specific",5,"negative",FALSE,"My friend is probably just too busy to respond right now","html-button-response-ca",2,9578,224959,0,2,"control","causal",2600743,1856882.30000001,2237007.30000001,64,4,2,0,0,0,0,0,1
"206","subCALEARN_4",1,"0.0-2.0-0.20-0.20",0,"You speak during a community meeting but feel like people aren't interested in what you have to say","external_specific",24,"negative",FALSE,"It was probably something to do with the timing of that speech (e.g., it was nearing the end of the evening)","html-button-response-ca",72,13908,463170,0,20,"control","causal",2600743,1856882.30000001,2237007.30000001,64,4,2,0,0,0,0,0,1
"207","subCALEARN_4",1,"0.0-2.0-0.21-0.21",0,"You washed your clothes on the wrong setting and the colours have run","internal_specific",25,"negative",FALSE,"On this occasion, I wasn't paying enough attention","html-button-response-ca",74,7416,472100,0,21,"control","causal",2600743,1856882.30000001,2237007.30000001,64,4,2,1,0,0,1,0,0
"208","subCALEARN_4",2,"0.0-2.0-0.22-0.22",0,"You see a very close friend and wave at them but they don't wave back","external_global",26,"negative",FALSE,"People often miss other people waving at them in the street","html-button-response-ca",79,11111,484725,0,22,"control","causal",2600743,1856882.30000001,2237007.30000001,64,4,2,0,1,0,0,1,0
"209","subCALEARN_4",0,"0.0-2.0-0.23-0.23",0,"A colleague comments on the high quality of your recent work","internal_specific",27,"positive",FALSE,"For this piece of work, I probably tried particularly hard","html-button-response-ca",93,7916,494162,0,23,"control","causal",2600743,1856882.30000001,2237007.30000001,64,4,2,1,0,0,1,0,0
"210","subCALEARN_4",3,"0.0-2.0-0.24-0.24",0,"You want to be nominated for a role in your local community group but no one suggests you","external_specific",28,"negative",FALSE,"Someone else probably campaigned to be nominated, so was put forward this time","html-button-response-ca",99,28726,524403,0,24,"control","causal",2600743,1856882.30000001,2237007.30000001,64,4,2,0,0,0,0,0,1
"211","subCALEARN_4",0,"0.0-2.0-0.25-0.25",0,"Someone from work tells you they would like to be on your team for a work social event","internal_specific",29,"positive",FALSE,"Recently, I have been friendly to this particular colleague","html-button-response-ca",101,9660,535575,0,25,"control","causal",2600743,1856882.30000001,2237007.30000001,64,4,2,1,0,0,1,0,0
"212","subCALEARN_4",3,"0.0-2.0-0.26-0.26",0,"Someone you care about takes time out of their busy day to check in on you ","internal_specific",30,"positive",FALSE,"I probably made an effort to check up on this particular person recently","html-button-response-ca",104,10883,547979,0,26,"control","causal",2600743,1856882.30000001,2237007.30000001,64,4,2,1,0,0,1,0,0
"213","subCALEARN_4",3,"0.0-2.0-0.27-0.27",0,"You forget you have put dinner in the oven and it burns","internal_specific",31,"negative",FALSE,"On this occasion, I let myself be distracted by something unimportant","html-button-response-ca",105,9446,558943,0,27,"control","causal",2600743,1856882.30000001,2237007.30000001,64,4,2,1,0,0,1,0,0
"214","subCALEARN_4",2,"0.0-2.0-0.28-0.28",0,"You overhear a colleague telling someone else they don't like you","internal_specific",32,"negative",FALSE,"I was probably slightly off-hand with this colleague at some point","html-button-response-ca",112,14041,574500,0,28,"control","causal",2600743,1856882.30000001,2237007.30000001,64,4,2,1,0,0,1,0,0
"215","subCALEARN_4",3,"0.0-2.0-0.29-0.29",0,"A colleague tells you they particularly appreciate your feedback on their work, as it is valuable","internal_specific",33,"positive",FALSE,"Recently, I've taken the time to help out this colleage with their work","html-button-response-ca",113,11915,587938,0,29,"control","causal",2600743,1856882.30000001,2237007.30000001,64,4,2,1,0,0,1,0,0
"216","subCALEARN_4",1,"0.0-2.0-0.3-0.3",0,"You return from the shops without something important from your shopping list","external_global",6,"negative",FALSE,"Usually people forget some things when they run errands","html-button-response-ca",3,8064,234546,0,3,"control","causal",2600743,1856882.30000001,2237007.30000001,64,4,2,0,1,0,0,1,0
"217","subCALEARN_4",3,"0.0-2.0-0.30-0.30",0,"You find out a colleague has nominated you for a performance award at work","internal_global",34,"positive",FALSE,"I'm good at my job","html-button-response-ca",116,9042,598501,0,30,"control","causal",2600743,1856882.30000001,2237007.30000001,64,4,2,1,1,1,0,0,0
"218","subCALEARN_4",1,"0.0-2.0-0.31-0.31",0,"You present your work during your evening class and get lots of praise from your classmates","internal_specific",35,"positive",FALSE,"I worked hard on this presentation so it turned out well","html-button-response-ca",127,8084,608110,0,31,"control","causal",2600743,1856882.30000001,2237007.30000001,64,4,2,1,0,0,1,0,0
"219","subCALEARN_4",3,"0.0-2.0-0.4-0.4",0,"You'd like to be more engaged in your local community","external_global",7,"negative",FALSE,"There are always times when life gets in the way of things we'd like to prioritise","html-button-response-ca",5,10442,246505,0,4,"control","causal",2600743,1856882.30000001,2237007.30000001,64,4,2,0,1,0,0,1,0
"220","subCALEARN_4",3,"0.0-2.0-0.5-0.5",0,"Your suggestion for a community social event receives the lowest number of votes","external_specific",8,"negative",FALSE,"There probably happened to be a better suggestion put forward that day","html-button-response-ca",7,12447,260475,0,5,"control","causal",2600743,1856882.30000001,2237007.30000001,64,4,2,0,0,0,0,0,1
"221","subCALEARN_4",1,"0.0-2.0-0.6-0.6",0,"You receive anonymised feedback on your work performance by colleagues, and it's very complimentary","internal_specific",9,"positive",FALSE,"Recently, I did well on a particular piece of work","html-button-response-ca",8,13013,275012,0,6,"control","causal",2600743,1856882.30000001,2237007.30000001,64,4,2,1,0,0,1,0,0
"222","subCALEARN_4",1,"0.0-2.0-0.7-0.7",0,"Someone you feel very close to is having a birthday dinner but hasn't invited you","external_specific",10,"negative",FALSE,"For this particular occasion, they were only able to invite a small number of people","html-button-response-ca",13,17076,293612,0,7,"control","causal",2600743,1856882.30000001,2237007.30000001,64,4,2,0,0,0,0,0,1
"223","subCALEARN_4",3,"0.0-2.0-0.8-0.8",0,"You find out that your manager wants to put you forward for promotion at work","internal_specific",11,"positive",FALSE,"Recently, I've been performing well at work","html-button-response-ca",15,11610,306741,0,8,"control","causal",2600743,1856882.30000001,2237007.30000001,64,4,2,1,0,0,1,0,0
"224","subCALEARN_4",3,"0.0-2.0-0.9-0.9",0,"You smile at someone across the street you recognise, but they don't smile back","external_specific",12,"negative",FALSE,"They were probably preoccupied and didn't see me","html-button-response-ca",17,10079,318341,0,9,"control","causal",2600743,1856882.30000001,2237007.30000001,64,4,2,0,0,0,0,0,1
"225","subCALEARN_4",1,"0.0-18.0-0.0-0.0",0,"You take part in a quiz at work and get lots of answers right, so your team wins","internal_specific",184,"positive",FALSE,"On this occasion, I knew a lot about the topics that came up","html-button-response-ca",11,10682,2233658,1,0,"control","causal",2600743,1856882.30000001,2237007.30000001,64,4,2,1,0,0,1,0,0
"226","subCALEARN_4",1,"0.0-18.0-0.1-0.1",0,"Your neighbour asks you to help them with their maths homework, and you do a good job explaining the problems to them","internal_global",185,"positive",FALSE,"I'm intelligent","html-button-response-ca",21,9197,2244372,1,1,"control","causal",2600743,1856882.30000001,2237007.30000001,64,4,2,1,1,1,0,0,0
"227","subCALEARN_4",1,"0.0-18.0-0.10-0.10",0,"Someone you are close to tells you you are not funny","external_global",194,"negative",FALSE,"Everyone has different senses of humour","html-button-response-ca",47,9216,2358681,1,10,"control","causal",2600743,1856882.30000001,2237007.30000001,64,4,2,0,1,0,0,1,0
"228","subCALEARN_4",3,"0.0-18.0-0.11-0.11",0,"Someone you work with tells you they trust your judgement","internal_global",195,"positive",FALSE,"People I work with generally respect my judgement","html-button-response-ca",53,8676,2368873,1,11,"control","causal",2600743,1856882.30000001,2237007.30000001,64,4,2,1,1,1,0,0,0
"229","subCALEARN_4",3,"0.0-18.0-0.12-0.12",0,"Someone you care about deeply has disclosed something you told them in confidence to someone else","external_specific",196,"negative",FALSE,"This person probably didn't remember this particular thing was told to them in confidence","html-button-response-ca",55,15102,2385496,1,12,"control","causal",2600743,1856882.30000001,2237007.30000001,64,4,2,0,0,0,0,0,1
"230","subCALEARN_4",0,"0.0-18.0-0.13-0.13",0,"Someone you are close to tells you they consider you a role model","internal_global",197,"positive",FALSE,"I'm the kind of person people look up to","html-button-response-ca",56,7269,2394290,1,13,"control","causal",2600743,1856882.30000001,2237007.30000001,64,4,2,1,1,1,0,0,0
"231","subCALEARN_4",2,"0.0-18.0-0.14-0.14",0,"You overhear someone at work talking about you behind your back","external_specific",198,"negative",FALSE,"This particular person is probably having a bad day","html-button-response-ca",59,10145,2405954,1,14,"control","causal",2600743,1856882.30000001,2237007.30000001,64,4,2,0,0,0,0,0,1
"232","subCALEARN_4",2,"0.0-18.0-0.15-0.15",0,"You give a presentation at work and it seems like no one is paying attention","external_global",199,"negative",FALSE,"People are often bored during work presentations","html-button-response-ca",61,9088,2416563,1,15,"control","causal",2600743,1856882.30000001,2237007.30000001,64,4,2,0,1,0,0,1,0
"233","subCALEARN_4",3,"0.0-18.0-0.16-0.16",0,"You ask a friend for help with something important but they say they are too busy","external_specific",201,"negative",FALSE,"This particular friend is probably dealing with something right now that demands all their attention","html-button-response-ca",67,10664,2432107,1,16,"control","causal",2600743,1856882.30000001,2237007.30000001,64,4,2,0,0,0,0,0,1
"234","subCALEARN_4",2,"0.0-18.0-0.17-0.17",0,"You receive an excellent performance evaluation from your boss","internal_global",202,"positive",FALSE,"I'm good at my job","html-button-response-ca",73,5275,2438899,1,17,"control","causal",2600743,1856882.30000001,2237007.30000001,64,4,2,1,1,1,0,0,0
"235","subCALEARN_4",3,"0.0-18.0-0.18-0.18",0,"A friend tells you that you are being difficult","external_specific",203,"negative",FALSE,"My friend is probably having a difficult time right now and is looking for more support from me","html-button-response-ca",75,6570,2446982,1,18,"control","causal",2600743,1856882.30000001,2237007.30000001,64,4,2,0,0,0,0,0,1
"236","subCALEARN_4",2,"0.0-18.0-0.19-0.19",0,"You find out that colleague has scored you poorly on a a performance evaluation","internal_specific",204,"negative",FALSE,"I haven't been making as much effort at work as I could have recently","html-button-response-ca",76,10542,2459034,1,19,"control","causal",2600743,1856882.30000001,2237007.30000001,64,4,2,1,0,0,1,0,0
"237","subCALEARN_4",3,"0.0-18.0-0.2-0.2",0,"You start doing the washing up but drop and smash a plate","internal_specific",186,"negative",FALSE,"At the time, I probably wasn't concentrating enough on what I was doing","html-button-response-ca",25,6846,2252743,1,2,"control","causal",2600743,1856882.30000001,2237007.30000001,64,4,2,1,0,0,1,0,0
"238","subCALEARN_4",3,"0.0-18.0-0.20-0.20",0,"You find out you passed a difficult test for a professional qualification you wanted","internal_global",205,"positive",FALSE,"I'm smart and work hard","html-button-response-ca",77,19679,2480236,1,20,"control","causal",2600743,1856882.30000001,2237007.30000001,64,4,2,1,1,1,0,0,0
"239","subCALEARN_4",0,"0.0-18.0-0.21-0.21",0,"A friend tells you you are a good friend to them","internal_global",206,"positive",FALSE,"I'm a good friend","html-button-response-ca",78,5074,2486828,1,21,"control","causal",2600743,1856882.30000001,2237007.30000001,64,4,2,1,1,1,0,0,0
"240","subCALEARN_4",3,"0.0-18.0-0.22-0.22",0,"You aren't nominated for an award recognizing contribution to workplace culture","internal_specific",207,"negative",FALSE,"Recently, I haven't tried much to engage with my colleagues","html-button-response-ca",83,18089,2506433,1,22,"control","causal",2600743,1856882.30000001,2237007.30000001,64,4,2,1,0,0,1,0,0
"241","subCALEARN_4",1,"0.0-18.0-0.23-0.23",0,"Someone from work tells you they consider you trustworthy","internal_global",208,"positive",FALSE,"Even people I don't know that well generally think well of me","html-button-response-ca",84,9670,2517629,1,23,"control","causal",2600743,1856882.30000001,2237007.30000001,64,4,2,1,1,1,0,0,0
"242","subCALEARN_4",1,"0.0-18.0-0.24-0.24",0,"You find yourself struggling to meet your targets at work","external_specific",209,"negative",FALSE,"This week, there happened to be more important things happening","html-button-response-ca",97,6095,2525246,1,24,"control","causal",2600743,1856882.30000001,2237007.30000001,64,4,2,0,0,0,0,0,1
"243","subCALEARN_4",2,"0.0-18.0-0.25-0.25",0,"Someone you care deeply about is not responding to your calls and messages","external_global",210,"negative",FALSE,"People are often too preocuppied with their own problems to reply to even important messages","html-button-response-ca",100,12884,2539649,1,25,"control","causal",2600743,1856882.30000001,2237007.30000001,64,4,2,0,1,0,0,1,0
"244","subCALEARN_4",0,"0.0-18.0-0.26-0.26",0,"A letter you have written to the newspaper is selected to be published","internal_global",211,"positive",FALSE,"People are interested in what I have to say","html-button-response-ca",102,6330,2547494,1,26,"control","causal",2600743,1856882.30000001,2237007.30000001,64,4,2,1,1,1,0,0,0
"245","subCALEARN_4",2,"0.0-18.0-0.27-0.27",0,"You find out a friend is having a party but hasn't invited you","external_global",212,"negative",FALSE,"People often accidentally miss people off invite lists","html-button-response-ca",108,11497,2560510,1,27,"control","causal",2600743,1856882.30000001,2237007.30000001,64,4,2,0,1,0,0,1,0
"246","subCALEARN_4",3,"0.0-18.0-0.28-0.28",0,"Someone you are close to tells you they wish they were more like you","internal_global",213,"positive",FALSE,"People I'm close to think well of me","html-button-response-ca",110,9261,2571286,1,28,"control","causal",2600743,1856882.30000001,2237007.30000001,64,4,2,1,1,1,0,0,0
"247","subCALEARN_4",3,"0.0-18.0-0.29-0.29",0,"A friend tells you you are a good person","internal_global",214,"positive",FALSE,"My friends think highly of me","html-button-response-ca",115,6599,2579406,1,29,"control","causal",2600743,1856882.30000001,2237007.30000001,64,4,2,1,1,1,0,0,0
"248","subCALEARN_4",2,"0.0-18.0-0.3-0.3",0,"You speak during a neighbourhood association meeting and receive applause","internal_global",187,"positive",FALSE,"I'm a good communicator","html-button-response-ca",28,6929,2261178,1,3,"control","causal",2600743,1856882.30000001,2237007.30000001,64,4,2,1,1,1,0,0,0
"249","subCALEARN_4",3,"0.0-18.0-0.30-0.30",0,"A friend calls you up out of the blue to see how you are","internal_global",215,"positive",FALSE,"My friends care about me","html-button-response-ca",120,5970,2586895,1,30,"control","causal",2600743,1856882.30000001,2237007.30000001,64,4,2,1,1,1,0,0,0
"250","subCALEARN_4",0,"0.0-18.0-0.31-0.31",0,"You find out that you didn't pass a test you took that counts towards a professional exam","internal_specific",216,"negative",FALSE,"I probably didn't spend enough time studying for the test","html-button-response-ca",125,12324,2600743,1,31,"control","causal",2600743,1856882.30000001,2237007.30000001,64,4,2,1,0,0,1,0,0
"251","subCALEARN_4",0,"0.0-18.0-0.4-0.4",0,"A colleague tells you they like your company","internal_global",188,"positive",FALSE,"I'm a fun person to be around","html-button-response-ca",29,19912,2282608,1,4,"control","causal",2600743,1856882.30000001,2237007.30000001,64,4,2,1,1,1,0,0,0
"252","subCALEARN_4",3,"0.0-18.0-0.5-0.5",0,"Someone you are close to tells you that they admire you","internal_global",189,"positive",FALSE,"People I care about look up to me","html-button-response-ca",31,13519,2297645,1,5,"control","causal",2600743,1856882.30000001,2237007.30000001,64,4,2,1,1,1,0,0,0
"253","subCALEARN_4",0,"0.0-18.0-0.6-0.6",0,"You complete today's crossword easily","internal_global",190,"positive",FALSE,"I'm quick-witted","html-button-response-ca",35,7569,2306728,1,6,"control","causal",2600743,1856882.30000001,2237007.30000001,64,4,2,1,1,1,0,0,0
"254","subCALEARN_4",3,"0.0-18.0-0.7-0.7",0,"You struggle to work out what everyone needs to pay when booking a work activity","internal_specific",191,"negative",FALSE,"This time, I didn't feel like persevering with solving the problem","html-button-response-ca",37,13813,2322057,1,7,"control","causal",2600743,1856882.30000001,2237007.30000001,64,4,2,1,0,0,1,0,0
"255","subCALEARN_4",0,"0.0-18.0-0.8-0.8",0,"You discover that you haven't been invited to an after-work social event","external_global",192,"negative",FALSE,"Everyone forgets to include someone sometimes","html-button-response-ca",44,11439,2335016,1,8,"control","causal",2600743,1856882.30000001,2237007.30000001,64,4,2,0,1,0,0,1,0
"256","subCALEARN_4",2,"0.0-18.0-0.9-0.9",0,"You present your work to the rest of your evening class but it doesn't receive much positive feedback","external_specific",193,"negative",FALSE,"On this occasion, people may have been preocuppied with something else (e.g., their own presentations)","html-button-response-ca",45,11409,2347941,1,9,"control","causal",2600743,1856882.30000001,2237007.30000001,64,4,2,0,0,0,0,0,1
"257","subCALEARN_5",1,"0.0-2.0-0.0-0.0",0,"You find out that someone you consider a friend has talked about you negatively behind your back","external_specific",3,"negative",FALSE,"My friend was probably just in a bad mood and letting off steam","html-button-response-ca",0,25824,307636,0,0,"control","causal",2723572,2030733.9000001,2396821.5,64,5,2,0,0,0,0,0,1
"258","subCALEARN_5",1,"0.0-2.0-0.1-0.1",0,"Someone from work invites you out for a cup of coffee","external_global",4,"positive",FALSE,"People at work generally reach out from time to time","html-button-response-ca",1,21585,330741,0,1,"control","causal",2723572,2030733.9000001,2396821.5,64,5,2,0,1,0,0,1,0
"259","subCALEARN_5",1,"0.0-2.0-0.10-0.10",0,"You didn't get the amount of work done you needed to","external_global",13,"negative",FALSE,"There are always times when life gets in the way of work","html-button-response-ca",18,25551,486586,0,10,"control","causal",2723572,2030733.9000001,2396821.5,64,5,2,0,1,0,0,1,0
"260","subCALEARN_5",3,"0.0-2.0-0.11-0.11",0,"You walk past a cafe close to work and see your some of your colleagues are meeting for lunch without you","external_global",14,"negative",FALSE,"People don't always remember to include everyone they mean to invite to something","html-button-response-ca",22,14949,503049,0,11,"control","causal",2723572,2030733.9000001,2396821.5,64,5,2,0,1,0,0,1,0
"261","subCALEARN_5",0,"0.0-2.0-0.12-0.12",0,"A friend tells you you make them laugh","external_specific",15,"positive",FALSE,"This particular friend happens to have a similar sense of humour to me","html-button-response-ca",24,10323,514875,0,12,"control","causal",2723572,2030733.9000001,2396821.5,64,5,2,0,0,0,0,0,1
"262","subCALEARN_5",2,"0.0-2.0-0.13-0.13",0,"A friend tells you speaking with you always makes them feel better","internal_global",16,"positive",FALSE,"I'm the kind of friend people value","html-button-response-ca",32,10753,527142,0,13,"control","causal",2723572,2030733.9000001,2396821.5,64,5,2,1,1,1,0,0,0
"263","subCALEARN_5",0,"0.0-2.0-0.14-0.14",0,"You find out that you have been put forward for a leadership position at work","internal_global",17,"positive",FALSE,"My colleagues respect my skill at work","html-button-response-ca",39,11718,540386,0,14,"control","causal",2723572,2030733.9000001,2396821.5,64,5,2,1,1,1,0,0,0
"264","subCALEARN_5",2,"0.0-2.0-0.15-0.15",0,"You submitted an application to join a local community forum but haven't heard anything back","internal_specific",18,"negative",FALSE,"I probably submitted my application incorrectly somehow","html-button-response-ca",41,27403,569303,0,15,"control","causal",2723572,2030733.9000001,2396821.5,64,5,2,1,0,0,1,0,0
"265","subCALEARN_5",2,"0.0-2.0-0.16-0.16",0,"Someone you are close to has sent you a card thanking you for being there for them during a difficult time","internal_specific",20,"positive",FALSE,"Recently, I have made an effort to be there for this particular friend","html-button-response-ca",43,10325,583686,0,16,"control","causal",2723572,2030733.9000001,2396821.5,64,5,2,1,0,0,1,0,0
"266","subCALEARN_5",2,"0.0-2.0-0.17-0.17",0,"You find out someone has contacted your employer to praise work you did for them","internal_specific",21,"positive",FALSE,"On this particular occasion, I did a good job","html-button-response-ca",54,26669,611861,0,17,"control","causal",2723572,2030733.9000001,2396821.5,64,5,2,1,0,0,1,0,0
"267","subCALEARN_5",3,"0.0-2.0-0.18-0.18",0,"You successfully practice saying some phrases of a new language you are trying to learn","internal_specific",22,"positive",FALSE,"I've been making a particular effort recently to spend time learning new things","html-button-response-ca",62,10115,623482,0,18,"control","causal",2723572,2030733.9000001,2396821.5,64,5,2,1,0,0,1,0,0
"268","subCALEARN_5",2,"0.0-2.0-0.19-0.19",0,"Someone you are close to tells you they trust you","internal_global",23,"positive",FALSE,"I'm a trustworthy person","html-button-response-ca",68,11234,636226,0,19,"control","causal",2723572,2030733.9000001,2396821.5,64,5,2,1,1,1,0,0,0
"269","subCALEARN_5",0,"0.0-2.0-0.2-0.2",0,"You message your friend to ask for advice but they don't reply","external_specific",5,"negative",FALSE,"My friend is probably just too busy to respond right now","html-button-response-ca",2,7444,339711,0,2,"control","causal",2723572,2030733.9000001,2396821.5,64,5,2,0,0,0,0,0,1
"270","subCALEARN_5",3,"0.0-2.0-0.20-0.20",0,"You speak during a community meeting but feel like people aren't interested in what you have to say","internal_specific",24,"negative",FALSE,"For this speech, my ideas weren't put together very well","html-button-response-ca",72,19874,657617,0,20,"control","causal",2723572,2030733.9000001,2396821.5,64,5,2,1,0,0,1,0,0
"271","subCALEARN_5",2,"0.0-2.0-0.21-0.21",0,"You washed your clothes on the wrong setting and the colours have run","internal_specific",25,"negative",FALSE,"On this occasion, I wasn't paying enough attention","html-button-response-ca",74,8286,667429,0,21,"control","causal",2723572,2030733.9000001,2396821.5,64,5,2,1,0,0,1,0,0
"272","subCALEARN_5",0,"0.0-2.0-0.22-0.22",0,"You see a very close friend and wave at them but they don't wave back","external_global",26,"negative",FALSE,"People often miss other people waving at them in the street","html-button-response-ca",79,17669,686608,0,22,"control","causal",2723572,2030733.9000001,2396821.5,64,5,2,0,1,0,0,1,0
"273","subCALEARN_5",2,"0.0-2.0-0.23-0.23",0,"A colleague comments on the high quality of your recent work","internal_specific",27,"positive",FALSE,"For this piece of work, I probably tried particularly hard","html-button-response-ca",93,8788,696920,0,23,"control","causal",2723572,2030733.9000001,2396821.5,64,5,2,1,0,0,1,0,0
"274","subCALEARN_5",1,"0.0-2.0-0.24-0.24",0,"You want to be nominated for a role in your local community group but no one suggests you","external_specific",28,"negative",FALSE,"Someone else probably campaigned to be nominated, so was put forward this time","html-button-response-ca",99,13180,711603,0,24,"control","causal",2723572,2030733.9000001,2396821.5,64,5,2,0,0,0,0,0,1
"275","subCALEARN_5",2,"0.0-2.0-0.25-0.25",0,"Someone from work tells you they would like to be on your team for a work social event","external_global",29,"positive",FALSE,"Colleagues generally try and include everyone in team events","html-button-response-ca",101,26299,739411,0,25,"control","causal",2723572,2030733.9000001,2396821.5,64,5,2,0,1,0,0,1,0
"276","subCALEARN_5",2,"0.0-2.0-0.26-0.26",0,"Someone you care about takes time out of their busy day to check in on you ","external_global",30,"positive",FALSE,"It's not uncommon for people to do nice things for their friends","html-button-response-ca",104,17113,758041,0,26,"control","causal",2723572,2030733.9000001,2396821.5,64,5,2,0,1,0,0,1,0
"277","subCALEARN_5",3,"0.0-2.0-0.27-0.27",0,"You forget you have put dinner in the oven and it burns","internal_specific",31,"negative",FALSE,"On this occasion, I let myself be distracted by something unimportant","html-button-response-ca",105,11029,770583,0,27,"control","causal",2723572,2030733.9000001,2396821.5,64,5,2,1,0,0,1,0,0
"278","subCALEARN_5",2,"0.0-2.0-0.28-0.28",0,"You overhear a colleague telling someone else they don't like you","internal_specific",32,"negative",FALSE,"I was probably slightly off-hand with this colleague at some point","html-button-response-ca",112,15433,787533,0,28,"control","causal",2723572,2030733.9000001,2396821.5,64,5,2,1,0,0,1,0,0
"279","subCALEARN_5",0,"0.0-2.0-0.29-0.29",0,"A colleague tells you they particularly appreciate your feedback on their work, as it is valuable","internal_specific",33,"positive",FALSE,"Recently, I've taken the time to help out this colleage with their work","html-button-response-ca",113,8073,797111,0,29,"control","causal",2723572,2030733.9000001,2396821.5,64,5,2,1,0,0,1,0,0
"280","subCALEARN_5",0,"0.0-2.0-0.3-0.3",0,"You return from the shops without something important from your shopping list","external_specific",6,"negative",FALSE,"Someone or something probably distracted me that time","html-button-response-ca",3,15671,356905,0,3,"control","causal",2723572,2030733.9000001,2396821.5,64,5,2,0,0,0,0,0,1
"281","subCALEARN_5",2,"0.0-2.0-0.30-0.30",0,"You find out a colleague has nominated you for a performance award at work","internal_specific",34,"positive",FALSE,"I worked hard on a recent piece of work","html-button-response-ca",116,7305,805918,0,30,"control","causal",2723572,2030733.9000001,2396821.5,64,5,2,1,0,0,1,0,0
"282","subCALEARN_5",0,"0.0-2.0-0.31-0.31",0,"You present your work during your evening class and get lots of praise from your classmates","internal_specific",35,"positive",FALSE,"I worked hard on this presentation so it turned out well","html-button-response-ca",127,8976,816411,0,31,"control","causal",2723572,2030733.9000001,2396821.5,64,5,2,1,0,0,1,0,0
"283","subCALEARN_5",3,"0.0-2.0-0.4-0.4",0,"You'd like to be more engaged in your local community","external_global",7,"negative",FALSE,"There are always times when life gets in the way of things we'd like to prioritise","html-button-response-ca",5,12013,370425,0,4,"control","causal",2723572,2030733.9000001,2396821.5,64,5,2,0,1,0,0,1,0
"284","subCALEARN_5",0,"0.0-2.0-0.5-0.5",0,"Your suggestion for a community social event receives the lowest number of votes","external_specific",8,"negative",FALSE,"There probably happened to be a better suggestion put forward that day","html-button-response-ca",7,18807,390760,0,5,"control","causal",2723572,2030733.9000001,2396821.5,64,5,2,0,0,0,0,0,1
"285","subCALEARN_5",3,"0.0-2.0-0.6-0.6",0,"You receive anonymised feedback on your work performance by colleagues, and it's very complimentary","internal_global",9,"positive",FALSE,"People at work respect me","html-button-response-ca",8,22852,415131,0,6,"control","causal",2723572,2030733.9000001,2396821.5,64,5,2,1,1,1,0,0,0
"286","subCALEARN_5",2,"0.0-2.0-0.7-0.7",0,"Someone you feel very close to is having a birthday dinner but hasn't invited you","external_specific",10,"negative",FALSE,"For this particular occasion, they were only able to invite a small number of people","html-button-response-ca",13,21145,437801,0,7,"control","causal",2723572,2030733.9000001,2396821.5,64,5,2,0,0,0,0,0,1
"287","subCALEARN_5",2,"0.0-2.0-0.8-0.8",0,"You find out that your manager wants to put you forward for promotion at work","internal_specific",11,"positive",FALSE,"Recently, I've been performing well at work","html-button-response-ca",15,10240,449554,0,8,"control","causal",2723572,2030733.9000001,2396821.5,64,5,2,1,0,0,1,0,0
"288","subCALEARN_5",3,"0.0-2.0-0.9-0.9",0,"You smile at someone across the street you recognise, but they don't smile back","external_specific",12,"negative",FALSE,"They were probably preoccupied and didn't see me","html-button-response-ca",17,8466,459531,0,9,"control","causal",2723572,2030733.9000001,2396821.5,64,5,2,0,0,0,0,0,1
"289","subCALEARN_5",1,"0.0-18.0-0.0-0.0",0,"You take part in a quiz at work and get lots of answers right, so your team wins","internal_global",184,"positive",FALSE,"I'm smart","html-button-response-ca",11,14635,2374594,1,0,"control","causal",2723572,2030733.9000001,2396821.5,64,5,2,1,1,1,0,0,0
"290","subCALEARN_5",1,"0.0-18.0-0.1-0.1",0,"Your neighbour asks you to help them with their maths homework, and you do a good job explaining the problems to them","internal_specific",185,"positive",FALSE,"I can usually get my head around straightforward problems","html-button-response-ca",21,6490,2382595,1,1,"control","causal",2723572,2030733.9000001,2396821.5,64,5,2,1,0,0,1,0,0
"291","subCALEARN_5",3,"0.0-18.0-0.10-0.10",0,"Someone you are close to tells you you are not funny","external_specific",194,"negative",FALSE,"This particular person probably doesn't have a similar sense of humour to me","html-button-response-ca",47,16518,2487264,1,10,"control","causal",2723572,2030733.9000001,2396821.5,64,5,2,0,0,0,0,0,1
"292","subCALEARN_5",1,"0.0-18.0-0.11-0.11",0,"Someone you work with tells you they trust your judgement","internal_global",195,"positive",FALSE,"People I work with generally respect my judgement","html-button-response-ca",53,6414,2495196,1,11,"control","causal",2723572,2030733.9000001,2396821.5,64,5,2,1,1,1,0,0,0
"293","subCALEARN_5",3,"0.0-18.0-0.12-0.12",0,"Someone you care about deeply has disclosed something you told them in confidence to someone else","external_specific",196,"negative",FALSE,"This person probably didn't remember this particular thing was told to them in confidence","html-button-response-ca",55,11842,2508563,1,12,"control","causal",2723572,2030733.9000001,2396821.5,64,5,2,0,0,0,0,0,1
"294","subCALEARN_5",0,"0.0-18.0-0.13-0.13",0,"Someone you are close to tells you they consider you a role model","internal_specific",197,"positive",FALSE,"I have recently been helping this particular person work through something","html-button-response-ca",56,9925,2519995,1,13,"control","causal",2723572,2030733.9000001,2396821.5,64,5,2,1,0,0,1,0,0
"295","subCALEARN_5",1,"0.0-18.0-0.14-0.14",0,"You overhear someone at work talking about you behind your back","external_global",198,"negative",FALSE,"It's not uncommon for people to let off steam by talking about their colleagues","html-button-response-ca",59,7202,2528718,1,14,"control","causal",2723572,2030733.9000001,2396821.5,64,5,2,0,1,0,0,1,0
"296","subCALEARN_5",2,"0.0-18.0-0.15-0.15",0,"You give a presentation at work and it seems like no one is paying attention","external_specific",199,"negative",FALSE,"My presentation was probably at a difficult time (e.g., just before lunch)","html-button-response-ca",61,7978,2538205,1,15,"control","causal",2723572,2030733.9000001,2396821.5,64,5,2,0,0,0,0,0,1
