"","uid","trial_index","response","trial_type","chosen_attr","rt","nTimeouts","blockNo","internal_node_id","time_elapsed","timedout","correct","trialNo","chosen_attr_type","itemNo","stimulus","valence","interventionCondition","learningCondition","totalTimeJsPsych","intStartTime","intEndTime","nTrials","ID","group","internalChosen","externalChosen","globalChosen","specificChosen","internalGlobalChosen","internalSpecificChosen","externalGlobalChosen","externalSpecificChosen"
"1","subCALEARN_1",43,1,"html-button-response-ca","This particular colleague doesn't seem to have a very high opinion of me",12985,0,1,"0.0-8.0-0.0-0.0",860187,FALSE,1,0,"internal_specific",4,"You ask a colleague to write you a reference but they say no","negative","control","causal",2229468,1750232.90000001,2041439.30000001,60,1,2,1,0,0,1,0,1,0,0
"2","subCALEARN_1",45,1,"html-button-response-ca","I've likely been messaging this person a lot recently",4973,0,1,"0.0-8.0-0.1-0.1",869167,FALSE,0,1,"internal_specific",6,"You message a friend something silly and they reply straight away","positive","control","causal",2229468,1750232.90000001,2041439.30000001,60,1,2,1,0,0,1,0,1,0,0
"3","subCALEARN_1",47,0,"html-button-response-ca","I'm quick at picking up new things",4185,0,1,"0.0-8.0-0.2-0.2",877369,FALSE,1,2,"internal_global",9,"You try a complicated new recipe and it turns out great","positive","control","causal",2229468,1750232.90000001,2041439.30000001,60,1,2,1,0,1,0,1,0,0,0
"4","subCALEARN_1",49,1,"html-button-response-ca","I'm the sort of person people like to keep in touch with",4896,0,1,"0.0-8.0-0.3-0.3",886280,FALSE,1,3,"internal_global",10,"Someone you were at school with reaches out to ask how you are doing","positive","control","causal",2229468,1750232.90000001,2041439.30000001,60,1,2,1,0,1,0,1,0,0,0
"5","subCALEARN_1",51,1,"html-button-response-ca","On this occasion, I let myself get distracted so didn't see it through",5391,0,1,"0.0-8.0-0.4-0.4",895703,FALSE,1,4,"internal_specific",12,"You start to fill out some paperwork for your bank but don't finish","negative","control","causal",2229468,1750232.90000001,2041439.30000001,60,1,2,1,0,0,1,0,1,0,0
"6","subCALEARN_1",53,1,"html-button-response-ca","I'm generally good at keeping things clean and tidy",6933,0,1,"0.0-8.0-0.5-0.5",906656,FALSE,0,5,"internal_specific",14,"You sort through a large basket of clothes that need to be washed","positive","control","causal",2229468,1750232.90000001,2041439.30000001,60,1,2,1,0,0,1,0,1,0,0
"7","subCALEARN_1",55,0,"html-button-response-ca","I probably haven't offered to help this person before",5075,0,1,"0.0-8.0-0.6-0.6",915741,FALSE,1,6,"internal_specific",16,"A colleague asks everyone at work except you to help them review a job application form","negative","control","causal",2229468,1750232.90000001,2041439.30000001,60,1,2,1,0,0,1,0,1,0,0
"8","subCALEARN_1",57,1,"html-button-response-ca","I usually don't find it hard to get people's attention",5883,0,1,"0.0-8.0-0.7-0.7",925634,FALSE,1,7,"internal_global",19,"You ask for help finding something in a shop, and manage to get what you need straight away","positive","control","causal",2229468,1750232.90000001,2041439.30000001,60,1,2,1,0,1,0,1,0,0,0
"9","subCALEARN_1",59,0,"html-button-response-ca","I likely didn't communicate to them that I might like to hear the same said back to me",5900,0,1,"0.0-8.0-0.8-0.8",935551,FALSE,1,8,"internal_specific",20,"You tell someone you are close to you that you admire them, but they don't tell you the same back","negative","control","causal",2229468,1750232.90000001,2041439.30000001,60,1,2,1,0,0,1,0,1,0,0
"10","subCALEARN_1",61,1,"html-button-response-ca","I probably didn't try very hard this time",3232,0,1,"0.0-8.0-0.9-0.9",942788,FALSE,1,9,"internal_specific",23,"You and your friends do a general knowledge quiz and you get the lowest score","negative","control","causal",2229468,1750232.90000001,2041439.30000001,60,1,2,1,0,0,1,0,1,0,0
"11","subCALEARN_1",63,0,"html-button-response-ca","People I'm close to generally miss me when I'm not around",7515,0,1,"0.0-8.0-0.10-0.10",954334,FALSE,1,10,"internal_global",26,"Someone you care deeply about rings you up out of the blue to chat","positive","control","causal",2229468,1750232.90000001,2041439.30000001,60,1,2,1,0,1,0,1,0,0,0
"12","subCALEARN_1",65,1,"html-button-response-ca","I'm good at seeing things through",4516,0,1,"0.0-8.0-0.11-0.11",962856,FALSE,1,11,"internal_global",27,"You have to fill in some long and boring paperwork, but manage to get it all done","positive","control","causal",2229468,1750232.90000001,2041439.30000001,60,1,2,1,0,1,0,1,0,0,0
"13","subCALEARN_1",67,0,"html-button-response-ca","On this occasion, I was probably disorganised and didn't plan my time well",4779,0,1,"0.0-8.0-0.12-0.12",971637,FALSE,1,12,"internal_specific",30,"You don't manage to finish everything you need to do for an important work deadline","negative","control","causal",2229468,1750232.90000001,2041439.30000001,60,1,2,1,0,0,1,0,1,0,0
"14","subCALEARN_1",69,1,"html-button-response-ca","I'm the kind of person people want to get to know",5839,0,1,"0.0-8.0-0.13-0.13",981486,FALSE,1,13,"internal_global",33,"Someone you met at an evening class suggests getting together for coffee","positive","control","causal",2229468,1750232.90000001,2041439.30000001,60,1,2,1,0,1,0,1,0,0,0
"15","subCALEARN_1",71,1,"html-button-response-ca","This time, I didn't plan well enough to get my application in on time",3524,0,1,"0.0-8.0-0.14-0.14",989038,FALSE,1,14,"internal_specific",49,"You wanted to sign up for an evening class but realise you have missed the deadline","negative","control","causal",2229468,1750232.90000001,2041439.30000001,60,1,2,1,0,0,1,0,1,0,0
"16","subCALEARN_1",73,0,"html-button-response-ca","I may have done something recently to annoy this person",3486,0,1,"0.0-8.0-0.15-0.15",996540,FALSE,1,15,"internal_specific",36,"You overhear a friend telling someone that you can't be trusted","negative","control","causal",2229468,1750232.90000001,2041439.30000001,60,1,2,1,0,0,1,0,1,0,0
"17","subCALEARN_1",75,1,"html-button-response-ca","I'm the sort of person people like to involve in things",5020,0,1,"0.0-8.0-0.16-0.16",1005565,FALSE,1,16,"internal_global",38,"You are asked to organise a social event for your local community","positive","control","causal",2229468,1750232.90000001,2041439.30000001,60,1,2,1,0,1,0,1,0,0,0
"18","subCALEARN_1",77,1,"html-button-response-ca","Recently, I haven't made enough time for hobbies or leisure activities",3566,0,1,"0.0-8.0-0.17-0.17",1013147,FALSE,1,17,"internal_specific",111,"You wish you had time to learn a new language or skill","negative","control","causal",2229468,1750232.90000001,2041439.30000001,60,1,2,1,0,0,1,0,1,0,0
"19","subCALEARN_1",79,0,"html-button-response-ca","When I need to, I generally get things done",4236,0,1,"0.0-8.0-0.18-0.18",1021401,FALSE,1,18,"internal_global",42,"You get through a whole sink full of washing up","positive","control","causal",2229468,1750232.90000001,2041439.30000001,60,1,2,1,0,1,0,1,0,0,0
"20","subCALEARN_1",81,1,"html-button-response-ca","I probably didn't spend enough time working this particular submission",2946,0,1,"0.0-8.0-0.19-0.19",1028352,FALSE,1,19,"internal_specific",46,"You submit a piece of writing to a competition but it is rejected","negative","control","causal",2229468,1750232.90000001,2041439.30000001,60,1,2,1,0,0,1,0,1,0,0
"21","subCALEARN_1",87,1,"html-button-response-ca","People generally remember that they need to eat",4742,0,2,"0.0-8.0-0.20-0.20",1109963,FALSE,0,20,"external_global",48,"You pick up a few things you need to make dinner","positive","control","causal",2229468,1750232.90000001,2041439.30000001,60,1,2,0,1,1,0,0,0,1,0
"22","subCALEARN_1",89,1,"html-button-response-ca","Lots of people don't use particular social media very often",5281,0,2,"0.0-8.0-0.21-0.21",1119256,FALSE,1,21,"external_global",126,"Someone you were at school with ignores your request to connect on social media","negative","control","causal",2229468,1750232.90000001,2041439.30000001,60,1,2,0,1,1,0,0,0,1,0
"23","subCALEARN_1",91,0,"html-button-response-ca","Often, there are more important things to think about than household chores",4337,0,2,"0.0-8.0-0.22-0.22",1127629,FALSE,1,22,"external_global",50,"You realise you forgot to hang out yesterday's washing","negative","control","causal",2229468,1750232.90000001,2041439.30000001,60,1,2,0,1,1,0,0,0,1,0
"24","subCALEARN_1",93,1,"html-button-response-ca","I'm the sort of person people think kindly of, even when absent",5671,0,2,"0.0-8.0-0.23-0.23",1137320,FALSE,1,23,"internal_global",51,"A friend sends you flowers, for no particular reason","positive","control","causal",2229468,1750232.90000001,2041439.30000001,60,1,2,1,0,1,0,1,0,0,0
"25","subCALEARN_1",95,0,"html-button-response-ca","Everyone gets lost sometimes",4371,0,2,"0.0-8.0-0.24-0.24",1145728,FALSE,1,24,"external_global",52,"You try taking a new short-cut home but end up getting lost","negative","control","causal",2229468,1750232.90000001,2041439.30000001,60,1,2,0,1,1,0,0,0,1,0
"26","subCALEARN_1",97,1,"html-button-response-ca","I'm the sort of person people like to be around",3561,0,2,"0.0-8.0-0.25-0.25",1153310,FALSE,1,25,"internal_global",57,"A colleague you don't know that well chooses to sit with you at lunch","positive","control","causal",2229468,1750232.90000001,2041439.30000001,60,1,2,1,0,1,0,1,0,0,0
"27","subCALEARN_1",99,0,"html-button-response-ca","People often feel like they don't want to interefere in others' lives",4515,0,2,"0.0-8.0-0.26-0.26",1161841,FALSE,1,26,"external_global",58,"You feel like you don't know your neighbours as well as you'd like to","negative","control","causal",2229468,1750232.90000001,2041439.30000001,60,1,2,0,1,1,0,0,0,1,0
"28","subCALEARN_1",101,1,"html-button-response-ca","Tests are often harder than people think",4038,0,2,"0.0-8.0-0.27-0.27",1169882,FALSE,1,27,"external_global",60,"Everyone at work is asked to do a lateral thinking test and you score poorly","negative","control","causal",2229468,1750232.90000001,2041439.30000001,60,1,2,0,1,1,0,0,0,1,0
"29","subCALEARN_1",103,0,"html-button-response-ca","I'm quick to pick things up",5988,0,2,"0.0-8.0-0.28-0.28",1179877,FALSE,1,28,"internal_global",63,"You manage to navigate a new route home without help","positive","control","causal",2229468,1750232.90000001,2041439.30000001,60,1,2,1,0,1,0,1,0,0,0
"30","subCALEARN_1",105,1,"html-button-response-ca","I'm likeable",2925,0,2,"0.0-8.0-0.29-0.29",1186824,FALSE,1,29,"internal_global",64,"A friend has sent you a postcard","positive","control","causal",2229468,1750232.90000001,2041439.30000001,60,1,2,1,0,1,0,1,0,0,0
"31","subCALEARN_1",107,0,"html-button-response-ca","People I'm close to care a lot about me",4023,0,2,"0.0-8.0-0.30-0.30",1194857,FALSE,1,30,"internal_global",65,"Someone you are close has sent you a gift, for no particular occasion","positive","control","causal",2229468,1750232.90000001,2041439.30000001,60,1,2,1,0,1,0,1,0,0,0
"32","subCALEARN_1",109,0,"html-button-response-ca","Paperwork is often hard and off-putting",3830,0,2,"0.0-8.0-0.31-0.31",1202692,FALSE,1,31,"external_global",66,"You need to fill in some complicated tax forms but end up not finishing them","negative","control","causal",2229468,1750232.90000001,2041439.30000001,60,1,2,0,1,1,0,0,0,1,0
"33","subCALEARN_1",111,1,"html-button-response-ca","People often lose touch with their contemporaries over time",4159,0,2,"0.0-8.0-0.32-0.32",1210874,FALSE,1,32,"external_global",69,"You notice that people from your year at school are having a lively conversation online, that you are not part of","negative","control","causal",2229468,1750232.90000001,2041439.30000001,60,1,2,0,1,1,0,0,0,1,0
"34","subCALEARN_1",113,0,"html-button-response-ca","I'm good at getting things done",4057,0,2,"0.0-8.0-0.33-0.33",1218947,FALSE,1,33,"internal_global",70,"You fold and put away a load of laundry","positive","control","causal",2229468,1750232.90000001,2041439.30000001,60,1,2,1,0,1,0,1,0,0,0
"35","subCALEARN_1",115,1,"html-button-response-ca","Puzzles can often be tedious and not fun",3195,0,2,"0.0-8.0-0.34-0.34",1226148,FALSE,1,34,"external_global",71,"You attempt a sudoko puzzle but can't finish it","negative","control","causal",2229468,1750232.90000001,2041439.30000001,60,1,2,0,1,1,0,0,0,1,0
"36","subCALEARN_1",117,1,"html-button-response-ca","There will always be days when you don't feel you were able to do your best",2893,0,2,"0.0-8.0-0.35-0.35",1233061,FALSE,1,35,"external_global",80,"You found out someone has complained to your employer about the quality of your work","negative","control","causal",2229468,1750232.90000001,2041439.30000001,60,1,2,0,1,1,0,0,0,1,0
"37","subCALEARN_1",119,0,"html-button-response-ca","I'm the sort of person people like to be around",4375,0,2,"0.0-8.0-0.36-0.36",1241455,FALSE,1,36,"internal_global",81,"A colleague particularly seeks you out to be on their team for an activity","positive","control","causal",2229468,1750232.90000001,2041439.30000001,60,1,2,1,0,1,0,1,0,0,0
"38","subCALEARN_1",121,1,"html-button-response-ca","Everyone lets life get in the way of things we value sometimes",4110,0,2,"0.0-8.0-0.37-0.37",1249601,FALSE,1,37,"external_global",82,"You feel like you'd like to have more hobbies","negative","control","causal",2229468,1750232.90000001,2041439.30000001,60,1,2,0,1,1,0,0,0,1,0
"39","subCALEARN_1",123,0,"html-button-response-ca","I'm good at remembering things",3690,0,2,"0.0-8.0-0.38-0.38",1257318,FALSE,1,38,"internal_global",85,"You do a large weekly shop and remember to get everything on your list","positive","control","causal",2229468,1750232.90000001,2041439.30000001,60,1,2,1,0,1,0,1,0,0,0
"40","subCALEARN_1",125,1,"html-button-response-ca","I'm the sort of person who gets things done",3692,0,2,"0.0-8.0-0.39-0.39",1265031,FALSE,1,39,"internal_global",86,"You fix something around the house that you have been meaning to get done for a while","positive","control","causal",2229468,1750232.90000001,2041439.30000001,60,1,2,1,0,1,0,1,0,0,0
"41","subCALEARN_1",131,0,"html-button-response-ca","People think I'm likely to embarass them",5174,0,3,"0.0-8.0-0.40-0.40",1380831,FALSE,0,40,"internal_global",87,"Someone you are very close to doesn't ask you to speak at their wedding","negative","control","causal",2229468,1750232.90000001,2041439.30000001,60,1,2,1,0,1,0,1,0,0,0
"42","subCALEARN_1",133,0,"html-button-response-ca","Someone may have mistakenly implied to these people that I prefer to eat alone",2110,0,3,"0.0-8.0-0.41-0.41",1386954,FALSE,1,41,"external_specific",88,"No one sits with you during your lunch break at work","negative","control","causal",2229468,1750232.90000001,2041439.30000001,60,1,2,0,1,0,1,0,0,0,1
"43","subCALEARN_1",135,1,"html-button-response-ca","Right now, I have a lot of other responsibilites that make it hard to commit time to learning",2450,0,3,"0.0-8.0-0.42-0.42",1393409,FALSE,1,42,"external_specific",89,"You are trying to learn a new language but can't seem to recall any phrases today","negative","control","causal",2229468,1750232.90000001,2041439.30000001,60,1,2,0,1,0,1,0,0,0,1
"44","subCALEARN_1",137,1,"html-button-response-ca","I'm the kind of person people would like to have represent them",3797,0,3,"0.0-8.0-0.43-0.43",1401226,FALSE,1,43,"internal_global",90,"You are asked to consider stepping forward to be a representative of your local community","positive","control","causal",2229468,1750232.90000001,2041439.30000001,60,1,2,1,0,1,0,1,0,0,0
"45","subCALEARN_1",139,0,"html-button-response-ca","I tend to pick things up quickly",2933,0,3,"0.0-8.0-0.44-0.44",1408183,FALSE,1,44,"internal_global",91,"You ask for directions from a stranger and sucessfully follow them","positive","control","causal",2229468,1750232.90000001,2041439.30000001,60,1,2,1,0,1,0,1,0,0,0
"46","subCALEARN_1",141,1,"html-button-response-ca","This particular assistant was probably in the middle of doing something else",1889,0,3,"0.0-8.0-0.45-0.45",1414091,FALSE,1,45,"external_specific",92,"You ask for help in a shop but feel the assistant ignores you","negative","control","causal",2229468,1750232.90000001,2041439.30000001,60,1,2,0,1,0,1,0,0,0,1
"47","subCALEARN_1",143,1,"html-button-response-ca","I'm the sort of person people often like straight away",8883,0,3,"0.0-8.0-0.46-0.46",1426984,FALSE,1,46,"internal_global",94,"Someone you met in an art class messages you to ask how you are","positive","control","causal",2229468,1750232.90000001,2041439.30000001,60,1,2,1,0,1,0,1,0,0,0
"48","subCALEARN_1",145,1,"html-button-response-ca","I'm intelligent",2582,0,3,"0.0-8.0-0.47-0.47",1433569,FALSE,1,47,"internal_global",95,"You manage to solve a difficult puzzle in the weekend paper","positive","control","causal",2229468,1750232.90000001,2041439.30000001,60,1,2,1,0,1,0,1,0,0,0
"49","subCALEARN_1",147,1,"html-button-response-ca","I like to get involved in things",8479,0,3,"0.0-8.0-0.48-0.48",1446051,FALSE,1,48,"internal_global",96,"You volunteer to join a local community organisation","positive","control","causal",2229468,1750232.90000001,2041439.30000001,60,1,2,1,0,1,0,1,0,0,0
"50","subCALEARN_1",149,1,"html-button-response-ca","People probably didn't realise I was eligible for this particular award",4230,0,3,"0.0-8.0-0.49-0.49",1454301,FALSE,1,49,"external_specific",98,"You had hoped to be nominated for an award at work but no one put you forward","negative","control","causal",2229468,1750232.90000001,2041439.30000001,60,1,2,0,1,0,1,0,0,0,1
"51","subCALEARN_1",151,0,"html-button-response-ca","Just then, they probably assumed I already thought they respected me",5846,0,3,"0.0-8.0-0.50-0.50",1464150,FALSE,1,50,"external_specific",103,"You tell someone you are close to that you respect them, but they don't tell you the same back","negative","control","causal",2229468,1750232.90000001,2041439.30000001,60,1,2,0,1,0,1,0,0,0,1
"52","subCALEARN_1",153,0,"html-button-response-ca","My friend was probably didn't see me",5032,0,3,"0.0-8.0-0.51-0.51",1473192,FALSE,1,51,"external_specific",34,"You see a friend on the street but they appear to ignore you","negative","control","causal",2229468,1750232.90000001,2041439.30000001,60,1,2,0,1,0,1,0,0,0,1
"53","subCALEARN_1",155,0,"html-button-response-ca","I find it easy to get things done",3443,0,3,"0.0-8.0-0.52-0.52",1480662,FALSE,1,52,"internal_global",107,"You put together a simple dinner you have cooked several times before","positive","control","causal",2229468,1750232.90000001,2041439.30000001,60,1,2,1,0,1,0,1,0,0,0
"54","subCALEARN_1",157,1,"html-button-response-ca","This specific comment was probably the result of a misunderstanding",2722,0,3,"0.0-8.0-0.53-0.53",1487417,FALSE,1,53,"external_specific",119,"A friend tells you they don't think you are honest","negative","control","causal",2229468,1750232.90000001,2041439.30000001,60,1,2,0,1,0,1,0,0,0,1
"55","subCALEARN_1",159,1,"html-button-response-ca","No one wanted to take part in this particular social event",6025,0,3,"0.0-8.0-0.54-0.54",1497479,FALSE,1,54,"external_specific",121,"At a work-related social event, people are slow to volunteer to be on your team","negative","control","causal",2229468,1750232.90000001,2041439.30000001,60,1,2,0,1,0,1,0,0,0,1
"56","subCALEARN_1",161,1,"html-button-response-ca","I put myself out there",3379,0,3,"0.0-8.0-0.55-0.55",1504867,FALSE,1,55,"internal_global",114,"You attend a taster session for a new hobby you are interested in starting","positive","control","causal",2229468,1750232.90000001,2041439.30000001,60,1,2,1,0,1,0,1,0,0,0
"57","subCALEARN_1",163,1,"html-button-response-ca","I'm the sort of person people who don't know me well feel comfortable with",5321,0,3,"0.0-8.0-0.56-0.56",1514200,FALSE,1,56,"internal_global",117,"A neighbour invites you in to their house to chat","positive","control","causal",2229468,1750232.90000001,2041439.30000001,60,1,2,1,0,1,0,1,0,0,0
"58","subCALEARN_1",165,0,"html-button-response-ca","On this occasion, the problem was particularly hard",6804,0,3,"0.0-8.0-0.57-0.57",1525034,FALSE,1,57,"external_specific",118,"You try and work out in your head how much each person needs to pay for dinner but can't","negative","control","causal",2229468,1750232.90000001,2041439.30000001,60,1,2,0,1,0,1,0,0,0,1
"59","subCALEARN_1",167,0,"html-button-response-ca","I'm a hard-worker who's good at seeing things through",3776,0,3,"0.0-8.0-0.58-0.58",1532821,FALSE,1,58,"internal_global",109,"You have been working on a difficult project at work, but manage to get everything done you need to","positive","control","causal",2229468,1750232.90000001,2041439.30000001,60,1,2,1,0,1,0,1,0,0,0
"60","subCALEARN_1",169,1,"html-button-response-ca","I'm a good communicator",8306,0,3,"0.0-8.0-0.59-0.59",1545154,FALSE,1,59,"internal_global",40,"A colleague asks for your help writing a job application, since you write well","positive","control","causal",2229468,1750232.90000001,2041439.30000001,60,1,2,1,0,1,0,1,0,0,0
"61","subCALEARN_2",47,1,"html-button-response-ca","This particular colleague doesn't seem to have a very high opinion of me",8181,0,1,"0.0-8.0-0.0-0.0",1906242,FALSE,1,0,"internal_specific",4,"You ask a colleague to write you a reference but they say no","negative","psychoed","causal",3646243,2833463,3295501.5999999,60,2,1,1,0,0,1,0,1,0,0
"62","subCALEARN_2",49,0,"html-button-response-ca","I've likely been messaging this person a lot recently",10222,0,1,"0.0-8.0-0.1-0.1",1920493,FALSE,0,1,"internal_specific",6,"You message a friend something silly and they reply straight away","positive","psychoed","causal",3646243,2833463,3295501.5999999,60,2,1,1,0,0,1,0,1,0,0
"63","subCALEARN_2",51,1,"html-button-response-ca","On this occasion, I managed to do everything right",5876,0,1,"0.0-8.0-0.2-0.2",1930394,FALSE,0,2,"internal_specific",9,"You try a complicated new recipe and it turns out great","positive","psychoed","causal",3646243,2833463,3295501.5999999,60,2,1,1,0,0,1,0,1,0,0
"64","subCALEARN_2",53,1,"html-button-response-ca","I'm the sort of person people like to keep in touch with",5350,0,1,"0.0-8.0-0.3-0.3",1939774,FALSE,1,3,"internal_global",10,"Someone you were at school with reaches out to ask how you are doing","positive","psychoed","causal",3646243,2833463,3295501.5999999,60,2,1,1,0,1,0,1,0,0,0
"65","subCALEARN_2",55,1,"html-button-response-ca","On this occasion, I let myself get distracted so didn't see it through",4608,0,1,"0.0-8.0-0.4-0.4",1948409,FALSE,1,4,"internal_specific",12,"You start to fill out some paperwork for your bank but don't finish","negative","psychoed","causal",3646243,2833463,3295501.5999999,60,2,1,1,0,0,1,0,1,0,0
"66","subCALEARN_2",57,1,"html-button-response-ca","I'm good at getting things done",6074,0,1,"0.0-8.0-0.5-0.5",1958511,FALSE,1,5,"internal_global",14,"You sort through a large basket of clothes that need to be washed","positive","psychoed","causal",3646243,2833463,3295501.5999999,60,2,1,1,0,1,0,1,0,0,0
"67","subCALEARN_2",59,1,"html-button-response-ca","I probably haven't offered to help this person before",6333,0,1,"0.0-8.0-0.6-0.6",1968892,FALSE,1,6,"internal_specific",16,"A colleague asks everyone at work except you to help them review a job application form","negative","psychoed","causal",3646243,2833463,3295501.5999999,60,2,1,1,0,0,1,0,1,0,0
"68","subCALEARN_2",61,0,"html-button-response-ca","On this occasion, I happened to manage to get their attention",6109,0,1,"0.0-8.0-0.7-0.7",1979028,FALSE,0,7,"internal_specific",19,"You ask for help finding something in a shop, and manage to get what you need straight away","positive","psychoed","causal",3646243,2833463,3295501.5999999,60,2,1,1,0,0,1,0,1,0,0
"69","subCALEARN_2",63,1,"html-button-response-ca","I likely didn't communicate to them that I might like to hear the same said back to me",7869,0,1,"0.0-8.0-0.8-0.8",1990926,FALSE,1,8,"internal_specific",20,"You tell someone you are close to you that you admire them, but they don't tell you the same back","negative","psychoed","causal",3646243,2833463,3295501.5999999,60,2,1,1,0,0,1,0,1,0,0
"70","subCALEARN_2",65,1,"html-button-response-ca","I probably didn't try very hard this time",4326,0,1,"0.0-8.0-0.9-0.9",1999282,FALSE,1,9,"internal_specific",23,"You and your friends do a general knowledge quiz and you get the lowest score","negative","psychoed","causal",3646243,2833463,3295501.5999999,60,2,1,1,0,0,1,0,1,0,0
"71","subCALEARN_2",67,1,"html-button-response-ca","This particular person has always seemed to care about me",9036,0,1,"0.0-8.0-0.10-0.10",2012349,FALSE,0,10,"internal_specific",26,"Someone you care deeply about rings you up out of the blue to chat","positive","psychoed","causal",3646243,2833463,3295501.5999999,60,2,1,1,0,0,1,0,1,0,0
"72","subCALEARN_2",69,0,"html-button-response-ca","I can generally get my paperwork done on time",7454,0,1,"0.0-8.0-0.11-0.11",2023832,FALSE,0,11,"internal_specific",27,"You have to fill in some long and boring paperwork, but manage to get it all done","positive","psychoed","causal",3646243,2833463,3295501.5999999,60,2,1,1,0,0,1,0,1,0,0
"73","subCALEARN_2",71,1,"html-button-response-ca","On this occasion, I was probably disorganised and didn't plan my time well",4499,0,1,"0.0-8.0-0.12-0.12",2032367,FALSE,1,12,"internal_specific",30,"You don't manage to finish everything you need to do for an important work deadline","negative","psychoed","causal",3646243,2833463,3295501.5999999,60,2,1,1,0,0,1,0,1,0,0
"74","subCALEARN_2",73,0,"html-button-response-ca","I'm the kind of person people want to get to know",5603,0,1,"0.0-8.0-0.13-0.13",2041996,FALSE,1,13,"internal_global",33,"Someone you met at an evening class suggests getting together for coffee","positive","psychoed","causal",3646243,2833463,3295501.5999999,60,2,1,1,0,1,0,1,0,0,0
"75","subCALEARN_2",75,0,"html-button-response-ca","This time, I didn't plan well enough to get my application in on time",3963,0,1,"0.0-8.0-0.14-0.14",2049999,FALSE,1,14,"internal_specific",49,"You wanted to sign up for an evening class but realise you have missed the deadline","negative","psychoed","causal",3646243,2833463,3295501.5999999,60,2,1,1,0,0,1,0,1,0,0
"76","subCALEARN_2",77,1,"html-button-response-ca","I may have done something recently to annoy this person",4394,0,1,"0.0-8.0-0.15-0.15",2058425,FALSE,1,15,"internal_specific",36,"You overhear a friend telling someone that you can't be trusted","negative","psychoed","causal",3646243,2833463,3295501.5999999,60,2,1,1,0,0,1,0,1,0,0
"77","subCALEARN_2",79,1,"html-button-response-ca","I've put on some good events in the past",4851,0,1,"0.0-8.0-0.16-0.16",2067307,FALSE,0,16,"internal_specific",38,"You are asked to organise a social event for your local community","positive","psychoed","causal",3646243,2833463,3295501.5999999,60,2,1,1,0,0,1,0,1,0,0
"78","subCALEARN_2",81,1,"html-button-response-ca","Recently, I haven't made enough time for hobbies or leisure activities",4003,0,1,"0.0-8.0-0.17-0.17",2075339,FALSE,1,17,"internal_specific",111,"You wish you had time to learn a new language or skill","negative","psychoed","causal",3646243,2833463,3295501.5999999,60,2,1,1,0,0,1,0,1,0,0
"79","subCALEARN_2",83,0,"html-button-response-ca","When I need to, I generally get things done",4193,0,1,"0.0-8.0-0.18-0.18",2083557,FALSE,1,18,"internal_global",42,"You get through a whole sink full of washing up","positive","psychoed","causal",3646243,2833463,3295501.5999999,60,2,1,1,0,1,0,1,0,0,0
"80","subCALEARN_2",85,0,"html-button-response-ca","I probably didn't spend enough time working this particular submission",4126,0,1,"0.0-8.0-0.19-0.19",2091707,FALSE,1,19,"internal_specific",46,"You submit a piece of writing to a competition but it is rejected","negative","psychoed","causal",3646243,2833463,3295501.5999999,60,2,1,1,0,0,1,0,1,0,0
"81","subCALEARN_2",91,0,"html-button-response-ca","I'm organised",5278,0,2,"0.0-8.0-0.20-0.20",2286926,FALSE,1,20,"internal_global",48,"You pick up a few things you need to make dinner","positive","psychoed","causal",3646243,2833463,3295501.5999999,60,2,1,1,0,1,0,1,0,0,0
"82","subCALEARN_2",93,1,"html-button-response-ca","Lots of people don't use particular social media very often",5971,0,2,"0.0-8.0-0.21-0.21",2296912,FALSE,1,21,"external_global",126,"Someone you were at school with ignores your request to connect on social media","negative","psychoed","causal",3646243,2833463,3295501.5999999,60,2,1,0,1,1,0,0,0,1,0
"83","subCALEARN_2",95,0,"html-button-response-ca","Often, there are more important things to think about than household chores",6517,0,2,"0.0-8.0-0.22-0.22",2307467,FALSE,1,22,"external_global",50,"You realise you forgot to hang out yesterday's washing","negative","psychoed","causal",3646243,2833463,3295501.5999999,60,2,1,0,1,1,0,0,0,1,0
"84","subCALEARN_2",97,1,"html-button-response-ca","It's not uncommon for people to do nice things for their friends",6261,0,2,"0.0-8.0-0.23-0.23",2317742,FALSE,0,23,"external_global",51,"A friend sends you flowers, for no particular reason","positive","psychoed","causal",3646243,2833463,3295501.5999999,60,2,1,0,1,1,0,0,0,1,0
"85","subCALEARN_2",99,1,"html-button-response-ca","Everyone gets lost sometimes",4671,0,2,"0.0-8.0-0.24-0.24",2326439,FALSE,1,24,"external_global",52,"You try taking a new short-cut home but end up getting lost","negative","psychoed","causal",3646243,2833463,3295501.5999999,60,2,1,0,1,1,0,0,0,1,0
"86","subCALEARN_2",101,1,"html-button-response-ca","I'm the sort of person people like to be around",5869,0,2,"0.0-8.0-0.25-0.25",2336341,FALSE,1,25,"internal_global",57,"A colleague you don't know that well chooses to sit with you at lunch","positive","psychoed","causal",3646243,2833463,3295501.5999999,60,2,1,1,0,1,0,1,0,0,0
"87","subCALEARN_2",103,0,"html-button-response-ca","People often feel like they don't want to interefere in others' lives",6294,0,2,"0.0-8.0-0.26-0.26",2346676,FALSE,1,26,"external_global",58,"You feel like you don't know your neighbours as well as you'd like to","negative","psychoed","causal",3646243,2833463,3295501.5999999,60,2,1,0,1,1,0,0,0,1,0
"88","subCALEARN_2",105,1,"html-button-response-ca","Tests are often harder than people think",5375,0,2,"0.0-8.0-0.27-0.27",2356088,FALSE,1,27,"external_global",60,"Everyone at work is asked to do a lateral thinking test and you score poorly","negative","psychoed","causal",3646243,2833463,3295501.5999999,60,2,1,0,1,1,0,0,0,1,0
"89","subCALEARN_2",107,0,"html-button-response-ca","I'm quick to pick things up",4926,0,2,"0.0-8.0-0.28-0.28",2365041,FALSE,1,28,"internal_global",63,"You manage to navigate a new route home without help","positive","psychoed","causal",3646243,2833463,3295501.5999999,60,2,1,1,0,1,0,1,0,0,0
"90","subCALEARN_2",109,0,"html-button-response-ca","I'm likeable",3459,0,2,"0.0-8.0-0.29-0.29",2372533,FALSE,1,29,"internal_global",64,"A friend has sent you a postcard","positive","psychoed","causal",3646243,2833463,3295501.5999999,60,2,1,1,0,1,0,1,0,0,0
"91","subCALEARN_2",111,1,"html-button-response-ca","People I'm close to care a lot about me",6043,0,2,"0.0-8.0-0.30-0.30",2382616,FALSE,1,30,"internal_global",65,"Someone you are close has sent you a gift, for no particular occasion","positive","psychoed","causal",3646243,2833463,3295501.5999999,60,2,1,1,0,1,0,1,0,0,0
"92","subCALEARN_2",113,0,"html-button-response-ca","Paperwork is often hard and off-putting",4749,0,2,"0.0-8.0-0.31-0.31",2391382,FALSE,1,31,"external_global",66,"You need to fill in some complicated tax forms but end up not finishing them","negative","psychoed","causal",3646243,2833463,3295501.5999999,60,2,1,0,1,1,0,0,0,1,0
"93","subCALEARN_2",115,0,"html-button-response-ca","People often lose touch with their contemporaries over time",5056,0,2,"0.0-8.0-0.32-0.32",2400462,FALSE,1,32,"external_global",69,"You notice that people from your year at school are having a lively conversation online, that you are not part of","negative","psychoed","causal",3646243,2833463,3295501.5999999,60,2,1,0,1,1,0,0,0,1,0
"94","subCALEARN_2",117,0,"html-button-response-ca","I'm good at getting things done",3672,0,2,"0.0-8.0-0.33-0.33",2408163,FALSE,1,33,"internal_global",70,"You fold and put away a load of laundry","positive","psychoed","causal",3646243,2833463,3295501.5999999,60,2,1,1,0,1,0,1,0,0,0
"95","subCALEARN_2",119,0,"html-button-response-ca","Puzzles can often be tedious and not fun",4210,0,2,"0.0-8.0-0.34-0.34",2416397,FALSE,1,34,"external_global",71,"You attempt a sudoko puzzle but can't finish it","negative","psychoed","causal",3646243,2833463,3295501.5999999,60,2,1,0,1,1,0,0,0,1,0
"96","subCALEARN_2",121,0,"html-button-response-ca","There will always be days when you don't feel you were able to do your best",3668,0,2,"0.0-8.0-0.35-0.35",2424100,FALSE,1,35,"external_global",80,"You found out someone has complained to your employer about the quality of your work","negative","psychoed","causal",3646243,2833463,3295501.5999999,60,2,1,0,1,1,0,0,0,1,0
"97","subCALEARN_2",123,0,"html-button-response-ca","I'm the sort of person people like to be around",3887,0,2,"0.0-8.0-0.36-0.36",2432012,FALSE,1,36,"internal_global",81,"A colleague particularly seeks you out to be on their team for an activity","positive","psychoed","causal",3646243,2833463,3295501.5999999,60,2,1,1,0,1,0,1,0,0,0
"98","subCALEARN_2",125,0,"html-button-response-ca","Everyone lets life get in the way of things we value sometimes",4709,0,2,"0.0-8.0-0.37-0.37",2440759,FALSE,1,37,"external_global",82,"You feel like you'd like to have more hobbies","negative","psychoed","causal",3646243,2833463,3295501.5999999,60,2,1,0,1,1,0,0,0,1,0
"99","subCALEARN_2",127,1,"html-button-response-ca","I'm good at remembering things",4370,0,2,"0.0-8.0-0.38-0.38",2449157,FALSE,1,38,"internal_global",85,"You do a large weekly shop and remember to get everything on your list","positive","psychoed","causal",3646243,2833463,3295501.5999999,60,2,1,1,0,1,0,1,0,0,0
"100","subCALEARN_2",129,1,"html-button-response-ca","I'm the sort of person who gets things done",4114,0,2,"0.0-8.0-0.39-0.39",2457297,FALSE,1,39,"internal_global",86,"You fix something around the house that you have been meaning to get done for a while","positive","psychoed","causal",3646243,2833463,3295501.5999999,60,2,1,1,0,1,0,1,0,0,0
"101","subCALEARN_2",135,1,"html-button-response-ca","This person may have a large family so doesn't have space for everyone to speak at this event",6544,0,3,"0.0-8.0-0.40-0.40",2543397,FALSE,1,40,"external_specific",87,"Someone you are very close to doesn't ask you to speak at their wedding","negative","psychoed","causal",3646243,2833463,3295501.5999999,60,2,1,0,1,0,1,0,0,0,1
"102","subCALEARN_2",137,1,"html-button-response-ca","Someone may have mistakenly implied to these people that I prefer to eat alone",4362,0,3,"0.0-8.0-0.41-0.41",2551783,FALSE,1,41,"external_specific",88,"No one sits with you during your lunch break at work","negative","psychoed","causal",3646243,2833463,3295501.5999999,60,2,1,0,1,0,1,0,0,0,1
"103","subCALEARN_2",139,1,"html-button-response-ca","Right now, I have a lot of other responsibilites that make it hard to commit time to learning",3724,0,3,"0.0-8.0-0.42-0.42",2559529,FALSE,1,42,"external_specific",89,"You are trying to learn a new language but can't seem to recall any phrases today","negative","psychoed","causal",3646243,2833463,3295501.5999999,60,2,1,0,1,0,1,0,0,0,1
"104","subCALEARN_2",141,1,"html-button-response-ca","I'm the kind of person people would like to have represent them",4799,0,3,"0.0-8.0-0.43-0.43",2568360,FALSE,1,43,"internal_global",90,"You are asked to consider stepping forward to be a representative of your local community","positive","psychoed","causal",3646243,2833463,3295501.5999999,60,2,1,1,0,1,0,1,0,0,0
"105","subCALEARN_2",143,0,"html-button-response-ca","I tend to pick things up quickly",5109,0,3,"0.0-8.0-0.44-0.44",2577493,FALSE,1,44,"internal_global",91,"You ask for directions from a stranger and sucessfully follow them","positive","psychoed","causal",3646243,2833463,3295501.5999999,60,2,1,1,0,1,0,1,0,0,0
"106","subCALEARN_2",145,1,"html-button-response-ca","This particular assistant was probably in the middle of doing something else",4413,0,3,"0.0-8.0-0.45-0.45",2585943,FALSE,1,45,"external_specific",92,"You ask for help in a shop but feel the assistant ignores you","negative","psychoed","causal",3646243,2833463,3295501.5999999,60,2,1,0,1,0,1,0,0,0,1
"107","subCALEARN_2",147,1,"html-button-response-ca","I'm the sort of person people often like straight away",5094,0,3,"0.0-8.0-0.46-0.46",2595073,FALSE,1,46,"internal_global",94,"Someone you met in an art class messages you to ask how you are","positive","psychoed","causal",3646243,2833463,3295501.5999999,60,2,1,1,0,1,0,1,0,0,0
"108","subCALEARN_2",149,0,"html-button-response-ca","I'm intelligent",5030,0,3,"0.0-8.0-0.47-0.47",2604124,FALSE,1,47,"internal_global",95,"You manage to solve a difficult puzzle in the weekend paper","positive","psychoed","causal",3646243,2833463,3295501.5999999,60,2,1,1,0,1,0,1,0,0,0
"109","subCALEARN_2",151,0,"html-button-response-ca","I like to get involved in things",4004,0,3,"0.0-8.0-0.48-0.48",2612154,FALSE,1,48,"internal_global",96,"You volunteer to join a local community organisation","positive","psychoed","causal",3646243,2833463,3295501.5999999,60,2,1,1,0,1,0,1,0,0,0
"110","subCALEARN_2",153,1,"html-button-response-ca","People probably didn't realise I was eligible for this particular award",3736,0,3,"0.0-8.0-0.49-0.49",2619913,FALSE,1,49,"external_specific",98,"You had hoped to be nominated for an award at work but no one put you forward","negative","psychoed","causal",3646243,2833463,3295501.5999999,60,2,1,0,1,0,1,0,0,0,1
"111","subCALEARN_2",155,0,"html-button-response-ca","Just then, they probably assumed I already thought they respected me",6339,0,3,"0.0-8.0-0.50-0.50",2630284,FALSE,1,50,"external_specific",103,"You tell someone you are close to that you respect them, but they don't tell you the same back","negative","psychoed","causal",3646243,2833463,3295501.5999999,60,2,1,0,1,0,1,0,0,0,1
"112","subCALEARN_2",157,1,"html-button-response-ca","My friend was probably didn't see me",4953,0,3,"0.0-8.0-0.51-0.51",2639273,FALSE,1,51,"external_specific",34,"You see a friend on the street but they appear to ignore you","negative","psychoed","causal",3646243,2833463,3295501.5999999,60,2,1,0,1,0,1,0,0,0,1
"113","subCALEARN_2",159,1,"html-button-response-ca","I find it easy to get things done",5189,0,3,"0.0-8.0-0.52-0.52",2648506,FALSE,1,52,"internal_global",107,"You put together a simple dinner you have cooked several times before","positive","psychoed","causal",3646243,2833463,3295501.5999999,60,2,1,1,0,1,0,1,0,0,0
"114","subCALEARN_2",161,0,"html-button-response-ca","This specific comment was probably the result of a misunderstanding",3838,0,3,"0.0-8.0-0.53-0.53",2656365,FALSE,1,53,"external_specific",119,"A friend tells you they don't think you are honest","negative","psychoed","causal",3646243,2833463,3295501.5999999,60,2,1,0,1,0,1,0,0,0,1
"115","subCALEARN_2",163,0,"html-button-response-ca","No one wanted to take part in this particular social event",5415,0,3,"0.0-8.0-0.54-0.54",2665799,FALSE,1,54,"external_specific",121,"At a work-related social event, people are slow to volunteer to be on your team","negative","psychoed","causal",3646243,2833463,3295501.5999999,60,2,1,0,1,0,1,0,0,0,1
"116","subCALEARN_2",165,0,"html-button-response-ca","I put myself out there",4264,0,3,"0.0-8.0-0.55-0.55",2674086,FALSE,1,55,"internal_global",114,"You attend a taster session for a new hobby you are interested in starting","positive","psychoed","causal",3646243,2833463,3295501.5999999,60,2,1,1,0,1,0,1,0,0,0
"117","subCALEARN_2",167,0,"html-button-response-ca","I'm the sort of person people who don't know me well feel comfortable with",3965,0,3,"0.0-8.0-0.56-0.56",2682080,FALSE,1,56,"internal_global",117,"A neighbour invites you in to their house to chat","positive","psychoed","causal",3646243,2833463,3295501.5999999,60,2,1,1,0,1,0,1,0,0,0
"118","subCALEARN_2",169,1,"html-button-response-ca","On this occasion, the problem was particularly hard",4722,0,3,"0.0-8.0-0.57-0.57",2690829,FALSE,1,57,"external_specific",118,"You try and work out in your head how much each person needs to pay for dinner but can't","negative","psychoed","causal",3646243,2833463,3295501.5999999,60,2,1,0,1,0,1,0,0,0,1
"119","subCALEARN_2",171,0,"html-button-response-ca","I'm a hard-worker who's good at seeing things through",5367,0,3,"0.0-8.0-0.58-0.58",2700215,FALSE,1,58,"internal_global",109,"You have been working on a difficult project at work, but manage to get everything done you need to","positive","psychoed","causal",3646243,2833463,3295501.5999999,60,2,1,1,0,1,0,1,0,0,0
"120","subCALEARN_2",173,0,"html-button-response-ca","I'm a good communicator",3667,0,3,"0.0-8.0-0.59-0.59",2707900,FALSE,1,59,"internal_global",40,"A colleague asks for your help writing a job application, since you write well","positive","psychoed","causal",3646243,2833463,3295501.5999999,60,2,1,1,0,1,0,1,0,0,0
"121","subCALEARN_3",65,0,"html-button-response-ca","No one I work with respects me",7198,0,1,"0.0-8.0-0.0-0.0",2277562,FALSE,0,0,"internal_global",4,"You ask a colleague to write you a reference but they say no","negative","control","causal",3237799,2812581.6,3014498.1,60,3,2,1,0,1,0,1,0,0,0
"122","subCALEARN_3",67,1,"html-button-response-ca","I've likely been messaging this person a lot recently",4997,0,1,"0.0-8.0-0.1-0.1",2286583,FALSE,0,1,"internal_specific",6,"You message a friend something silly and they reply straight away","positive","control","causal",3237799,2812581.6,3014498.1,60,3,2,1,0,0,1,0,1,0,0
"123","subCALEARN_3",69,0,"html-button-response-ca","I'm quick at picking up new things",2990,0,1,"0.0-8.0-0.2-0.2",2293609,FALSE,1,2,"internal_global",9,"You try a complicated new recipe and it turns out great","positive","control","causal",3237799,2812581.6,3014498.1,60,3,2,1,0,1,0,1,0,0,0
"124","subCALEARN_3",71,1,"html-button-response-ca","I probably used to get on well with this particular person",3912,0,1,"0.0-8.0-0.3-0.3",2301565,FALSE,0,3,"internal_specific",10,"Someone you were at school with reaches out to ask how you are doing","positive","control","causal",3237799,2812581.6,3014498.1,60,3,2,1,0,0,1,0,1,0,0
"125","subCALEARN_3",73,1,"html-button-response-ca","On this occasion, I let myself get distracted so didn't see it through",3960,0,1,"0.0-8.0-0.4-0.4",2309585,FALSE,1,4,"internal_specific",12,"You start to fill out some paperwork for your bank but don't finish","negative","control","causal",3237799,2812581.6,3014498.1,60,3,2,1,0,0,1,0,1,0,0
"126","subCALEARN_3",75,1,"html-button-response-ca","I'm good at getting things done",3049,0,1,"0.0-8.0-0.5-0.5",2316676,FALSE,1,5,"internal_global",14,"You sort through a large basket of clothes that need to be washed","positive","control","causal",3237799,2812581.6,3014498.1,60,3,2,1,0,1,0,1,0,0,0
"127","subCALEARN_3",77,1,"html-button-response-ca","I probably haven't offered to help this person before",5201,0,1,"0.0-8.0-0.6-0.6",2325947,FALSE,1,6,"internal_specific",16,"A colleague asks everyone at work except you to help them review a job application form","negative","control","causal",3237799,2812581.6,3014498.1,60,3,2,1,0,0,1,0,1,0,0
"128","subCALEARN_3",79,0,"html-button-response-ca","On this occasion, I happened to manage to get their attention",6944,0,1,"0.0-8.0-0.7-0.7",2336926,FALSE,0,7,"internal_specific",19,"You ask for help finding something in a shop, and manage to get what you need straight away","positive","control","causal",3237799,2812581.6,3014498.1,60,3,2,1,0,0,1,0,1,0,0
"129","subCALEARN_3",81,0,"html-button-response-ca","I likely didn't communicate to them that I might like to hear the same said back to me",7241,0,1,"0.0-8.0-0.8-0.8",2348213,FALSE,1,8,"internal_specific",20,"You tell someone you are close to you that you admire them, but they don't tell you the same back","negative","control","causal",3237799,2812581.6,3014498.1,60,3,2,1,0,0,1,0,1,0,0
"130","subCALEARN_3",83,0,"html-button-response-ca","I probably didn't try very hard this time",2917,0,1,"0.0-8.0-0.9-0.9",2355169,FALSE,1,9,"internal_specific",23,"You and your friends do a general knowledge quiz and you get the lowest score","negative","control","causal",3237799,2812581.6,3014498.1,60,3,2,1,0,0,1,0,1,0,0
"131","subCALEARN_3",85,1,"html-button-response-ca","People I'm close to generally miss me when I'm not around",8493,0,1,"0.0-8.0-0.10-0.10",2367704,FALSE,1,10,"internal_global",26,"Someone you care deeply about rings you up out of the blue to chat","positive","control","causal",3237799,2812581.6,3014498.1,60,3,2,1,0,1,0,1,0,0,0
"132","subCALEARN_3",87,0,"html-button-response-ca","I'm good at seeing things through",5680,0,1,"0.0-8.0-0.11-0.11",2377430,FALSE,1,11,"internal_global",27,"You have to fill in some long and boring paperwork, but manage to get it all done","positive","control","causal",3237799,2812581.6,3014498.1,60,3,2,1,0,1,0,1,0,0,0
"133","subCALEARN_3",89,0,"html-button-response-ca","On this occasion, I was probably disorganised and didn't plan my time well",3890,0,1,"0.0-8.0-0.12-0.12",2385361,FALSE,1,12,"internal_specific",30,"You don't manage to finish everything you need to do for an important work deadline","negative","control","causal",3237799,2812581.6,3014498.1,60,3,2,1,0,0,1,0,1,0,0
"134","subCALEARN_3",91,0,"html-button-response-ca","I'm the kind of person people want to get to know",3375,0,1,"0.0-8.0-0.13-0.13",2392756,FALSE,1,13,"internal_global",33,"Someone you met at an evening class suggests getting together for coffee","positive","control","causal",3237799,2812581.6,3014498.1,60,3,2,1,0,1,0,1,0,0,0
"135","subCALEARN_3",93,1,"html-button-response-ca","This time, I didn't plan well enough to get my application in on time",3018,0,1,"0.0-8.0-0.14-0.14",2399820,FALSE,1,14,"internal_specific",49,"You wanted to sign up for an evening class but realise you have missed the deadline","negative","control","causal",3237799,2812581.6,3014498.1,60,3,2,1,0,0,1,0,1,0,0
"136","subCALEARN_3",95,0,"html-button-response-ca","I may have done something recently to annoy this person",3200,0,1,"0.0-8.0-0.15-0.15",2407063,FALSE,1,15,"internal_specific",36,"You overhear a friend telling someone that you can't be trusted","negative","control","causal",3237799,2812581.6,3014498.1,60,3,2,1,0,0,1,0,1,0,0
"137","subCALEARN_3",97,1,"html-button-response-ca","I've put on some good events in the past",5600,0,1,"0.0-8.0-0.16-0.16",2416709,FALSE,0,16,"internal_specific",38,"You are asked to organise a social event for your local community","positive","control","causal",3237799,2812581.6,3014498.1,60,3,2,1,0,0,1,0,1,0,0
"138","subCALEARN_3",99,0,"html-button-response-ca","Recently, I haven't made enough time for hobbies or leisure activities",2016,0,1,"0.0-8.0-0.17-0.17",2422772,FALSE,1,17,"internal_specific",111,"You wish you had time to learn a new language or skill","negative","control","causal",3237799,2812581.6,3014498.1,60,3,2,1,0,0,1,0,1,0,0
"139","subCALEARN_3",101,0,"html-button-response-ca","When I need to, I generally get things done",5281,0,1,"0.0-8.0-0.18-0.18",2432112,FALSE,1,18,"internal_global",42,"You get through a whole sink full of washing up","positive","control","causal",3237799,2812581.6,3014498.1,60,3,2,1,0,1,0,1,0,0,0
"140","subCALEARN_3",103,1,"html-button-response-ca","I probably didn't spend enough time working this particular submission",2541,0,1,"0.0-8.0-0.19-0.19",2438689,FALSE,1,19,"internal_specific",46,"You submit a piece of writing to a competition but it is rejected","negative","control","causal",3237799,2812581.6,3014498.1,60,3,2,1,0,0,1,0,1,0,0
"141","subCALEARN_3",109,0,"html-button-response-ca","I'm organised",2616,0,2,"0.0-8.0-0.20-0.20",2478064,FALSE,1,20,"internal_global",48,"You pick up a few things you need to make dinner","positive","control","causal",3237799,2812581.6,3014498.1,60,3,2,1,0,1,0,1,0,0,0
"142","subCALEARN_3",111,0,"html-button-response-ca","Lots of people don't use particular social media very often",6070,0,2,"0.0-8.0-0.21-0.21",2488676,FALSE,1,21,"external_global",126,"Someone you were at school with ignores your request to connect on social media","negative","control","causal",3237799,2812581.6,3014498.1,60,3,2,0,1,1,0,0,0,1,0
"143","subCALEARN_3",113,1,"html-button-response-ca","Often, there are more important things to think about than household chores",2582,0,2,"0.0-8.0-0.22-0.22",2495300,FALSE,1,22,"external_global",50,"You realise you forgot to hang out yesterday's washing","negative","control","causal",3237799,2812581.6,3014498.1,60,3,2,0,1,1,0,0,0,1,0
"144","subCALEARN_3",115,0,"html-button-response-ca","I'm the sort of person people think kindly of, even when absent",4641,0,2,"0.0-8.0-0.23-0.23",2503986,FALSE,1,23,"internal_global",51,"A friend sends you flowers, for no particular reason","positive","control","causal",3237799,2812581.6,3014498.1,60,3,2,1,0,1,0,1,0,0,0
"145","subCALEARN_3",117,0,"html-button-response-ca","Everyone gets lost sometimes",2846,0,2,"0.0-8.0-0.24-0.24",2510887,FALSE,1,24,"external_global",52,"You try taking a new short-cut home but end up getting lost","negative","control","causal",3237799,2812581.6,3014498.1,60,3,2,0,1,1,0,0,0,1,0
"146","subCALEARN_3",119,1,"html-button-response-ca","I'm the sort of person people like to be around",1814,0,2,"0.0-8.0-0.25-0.25",2516742,FALSE,1,25,"internal_global",57,"A colleague you don't know that well chooses to sit with you at lunch","positive","control","causal",3237799,2812581.6,3014498.1,60,3,2,1,0,1,0,1,0,0,0
"147","subCALEARN_3",121,1,"html-button-response-ca","People often feel like they don't want to interefere in others' lives",2871,0,2,"0.0-8.0-0.26-0.26",2523665,FALSE,1,26,"external_global",58,"You feel like you don't know your neighbours as well as you'd like to","negative","control","causal",3237799,2812581.6,3014498.1,60,3,2,0,1,1,0,0,0,1,0
"148","subCALEARN_3",123,0,"html-button-response-ca","Tests are often harder than people think",4101,0,2,"0.0-8.0-0.27-0.27",2531793,FALSE,1,27,"external_global",60,"Everyone at work is asked to do a lateral thinking test and you score poorly","negative","control","causal",3237799,2812581.6,3014498.1,60,3,2,0,1,1,0,0,0,1,0
"149","subCALEARN_3",125,1,"html-button-response-ca","I'm quick to pick things up",2217,0,2,"0.0-8.0-0.28-0.28",2538042,FALSE,1,28,"internal_global",63,"You manage to navigate a new route home without help","positive","control","causal",3237799,2812581.6,3014498.1,60,3,2,1,0,1,0,1,0,0,0
"150","subCALEARN_3",127,0,"html-button-response-ca","I'm likeable",1743,0,2,"0.0-8.0-0.29-0.29",2543846,FALSE,1,29,"internal_global",64,"A friend has sent you a postcard","positive","control","causal",3237799,2812581.6,3014498.1,60,3,2,1,0,1,0,1,0,0,0
"151","subCALEARN_3",129,1,"html-button-response-ca","People I'm close to care a lot about me",2255,0,2,"0.0-8.0-0.30-0.30",2550133,FALSE,1,30,"internal_global",65,"Someone you are close has sent you a gift, for no particular occasion","positive","control","causal",3237799,2812581.6,3014498.1,60,3,2,1,0,1,0,1,0,0,0
"152","subCALEARN_3",131,1,"html-button-response-ca","Paperwork is often hard and off-putting",1486,0,2,"0.0-8.0-0.31-0.31",2555657,FALSE,1,31,"external_global",66,"You need to fill in some complicated tax forms but end up not finishing them","negative","control","causal",3237799,2812581.6,3014498.1,60,3,2,0,1,1,0,0,0,1,0
"153","subCALEARN_3",133,1,"html-button-response-ca","People often lose touch with their contemporaries over time",2500,0,2,"0.0-8.0-0.32-0.32",2562213,FALSE,1,32,"external_global",69,"You notice that people from your year at school are having a lively conversation online, that you are not part of","negative","control","causal",3237799,2812581.6,3014498.1,60,3,2,0,1,1,0,0,0,1,0
"154","subCALEARN_3",135,1,"html-button-response-ca","I'm good at getting things done",1603,0,2,"0.0-8.0-0.33-0.33",2567847,FALSE,1,33,"internal_global",70,"You fold and put away a load of laundry","positive","control","causal",3237799,2812581.6,3014498.1,60,3,2,1,0,1,0,1,0,0,0
"155","subCALEARN_3",137,0,"html-button-response-ca","Puzzles can often be tedious and not fun",1952,0,2,"0.0-8.0-0.34-0.34",2573826,FALSE,1,34,"external_global",71,"You attempt a sudoko puzzle but can't finish it","negative","control","causal",3237799,2812581.6,3014498.1,60,3,2,0,1,1,0,0,0,1,0
"156","subCALEARN_3",139,1,"html-button-response-ca","There will always be days when you don't feel you were able to do your best",3628,0,2,"0.0-8.0-0.35-0.35",2581494,FALSE,1,35,"external_global",80,"You found out someone has complained to your employer about the quality of your work","negative","control","causal",3237799,2812581.6,3014498.1,60,3,2,0,1,1,0,0,0,1,0
"157","subCALEARN_3",141,0,"html-button-response-ca","I'm the sort of person people like to be around",3534,0,2,"0.0-8.0-0.36-0.36",2588813,FALSE,1,36,"internal_global",81,"A colleague particularly seeks you out to be on their team for an activity","positive","control","causal",3237799,2812581.6,3014498.1,60,3,2,1,0,1,0,1,0,0,0
"158","subCALEARN_3",143,0,"html-button-response-ca","Everyone lets life get in the way of things we value sometimes",3432,0,2,"0.0-8.0-0.37-0.37",2594018,FALSE,1,37,"external_global",82,"You feel like you'd like to have more hobbies","negative","control","causal",3237799,2812581.6,3014498.1,60,3,2,0,1,1,0,0,0,1,0
"159","subCALEARN_3",145,1,"html-button-response-ca","I'm good at remembering things",2523,0,2,"0.0-8.0-0.38-0.38",2600584,FALSE,1,38,"internal_global",85,"You do a large weekly shop and remember to get everything on your list","positive","control","causal",3237799,2812581.6,3014498.1,60,3,2,1,0,1,0,1,0,0,0
"160","subCALEARN_3",147,1,"html-button-response-ca","I'm the sort of person who gets things done",3290,0,2,"0.0-8.0-0.39-0.39",2607915,FALSE,1,39,"internal_global",86,"You fix something around the house that you have been meaning to get done for a while","positive","control","causal",3237799,2812581.6,3014498.1,60,3,2,1,0,1,0,1,0,0,0
"161","subCALEARN_3",153,1,"html-button-response-ca","This person may have a large family so doesn't have space for everyone to speak at this event",3335,0,3,"0.0-8.0-0.40-0.40",2636631,FALSE,1,40,"external_specific",87,"Someone you are very close to doesn't ask you to speak at their wedding","negative","control","causal",3237799,2812581.6,3014498.1,60,3,2,0,1,0,1,0,0,0,1
"162","subCALEARN_3",155,1,"html-button-response-ca","Someone may have mistakenly implied to these people that I prefer to eat alone",1306,0,3,"0.0-8.0-0.41-0.41",2641974,FALSE,1,41,"external_specific",88,"No one sits with you during your lunch break at work","negative","control","causal",3237799,2812581.6,3014498.1,60,3,2,0,1,0,1,0,0,0,1
"163","subCALEARN_3",157,1,"html-button-response-ca","Right now, I have a lot of other responsibilites that make it hard to commit time to learning",1268,0,3,"0.0-8.0-0.42-0.42",2647260,FALSE,1,42,"external_specific",89,"You are trying to learn a new language but can't seem to recall any phrases today","negative","control","causal",3237799,2812581.6,3014498.1,60,3,2,0,1,0,1,0,0,0,1
"164","subCALEARN_3",159,0,"html-button-response-ca","This time, everyone else had probably already been asked",2241,0,3,"0.0-8.0-0.43-0.43",2653552,FALSE,0,43,"external_specific",90,"You are asked to consider stepping forward to be a representative of your local community","positive","control","causal",3237799,2812581.6,3014498.1,60,3,2,0,1,0,1,0,0,0,1
"165","subCALEARN_3",161,0,"html-button-response-ca","I tend to pick things up quickly",1469,0,3,"0.0-8.0-0.44-0.44",2659062,FALSE,1,44,"internal_global",91,"You ask for directions from a stranger and sucessfully follow them","positive","control","causal",3237799,2812581.6,3014498.1,60,3,2,1,0,1,0,1,0,0,0
"166","subCALEARN_3",163,0,"html-button-response-ca","This particular assistant was probably in the middle of doing something else",1992,0,3,"0.0-8.0-0.45-0.45",2665080,FALSE,1,45,"external_specific",92,"You ask for help in a shop but feel the assistant ignores you","negative","control","causal",3237799,2812581.6,3014498.1,60,3,2,0,1,0,1,0,0,0,1
"167","subCALEARN_3",165,0,"html-button-response-ca","I'm the sort of person people often like straight away",1768,0,3,"0.0-8.0-0.46-0.46",2670882,FALSE,1,46,"internal_global",94,"Someone you met in an art class messages you to ask how you are","positive","control","causal",3237799,2812581.6,3014498.1,60,3,2,1,0,1,0,1,0,0,0
"168","subCALEARN_3",167,1,"html-button-response-ca","I'm intelligent",2397,0,3,"0.0-8.0-0.47-0.47",2677333,FALSE,1,47,"internal_global",95,"You manage to solve a difficult puzzle in the weekend paper","positive","control","causal",3237799,2812581.6,3014498.1,60,3,2,1,0,1,0,1,0,0,0
"169","subCALEARN_3",169,1,"html-button-response-ca","I like to get involved in things",3320,0,3,"0.0-8.0-0.48-0.48",2684672,FALSE,1,48,"internal_global",96,"You volunteer to join a local community organisation","positive","control","causal",3237799,2812581.6,3014498.1,60,3,2,1,0,1,0,1,0,0,0
"170","subCALEARN_3",171,0,"html-button-response-ca","People probably didn't realise I was eligible for this particular award",3138,0,3,"0.0-8.0-0.49-0.49",2691886,FALSE,1,49,"external_specific",98,"You had hoped to be nominated for an award at work but no one put you forward","negative","control","causal",3237799,2812581.6,3014498.1,60,3,2,0,1,0,1,0,0,0,1
"171","subCALEARN_3",173,0,"html-button-response-ca","Just then, they probably assumed I already thought they respected me",4961,0,3,"0.0-8.0-0.50-0.50",2700883,FALSE,1,50,"external_specific",103,"You tell someone you are close to that you respect them, but they don't tell you the same back","negative","control","causal",3237799,2812581.6,3014498.1,60,3,2,0,1,0,1,0,0,0,1
"172","subCALEARN_3",175,0,"html-button-response-ca","My friend was probably didn't see me",2655,0,3,"0.0-8.0-0.51-0.51",2707570,FALSE,1,51,"external_specific",34,"You see a friend on the street but they appear to ignore you","negative","control","causal",3237799,2812581.6,3014498.1,60,3,2,0,1,0,1,0,0,0,1
"173","subCALEARN_3",177,0,"html-button-response-ca","I find it easy to get things done",1420,0,3,"0.0-8.0-0.52-0.52",2713050,FALSE,1,52,"internal_global",107,"You put together a simple dinner you have cooked several times before","positive","control","causal",3237799,2812581.6,3014498.1,60,3,2,1,0,1,0,1,0,0,0
"174","subCALEARN_3",179,0,"html-button-response-ca","This specific comment was probably the result of a misunderstanding",2207,0,3,"0.0-8.0-0.53-0.53",2719301,FALSE,1,53,"external_specific",119,"A friend tells you they don't think you are honest","negative","control","causal",3237799,2812581.6,3014498.1,60,3,2,0,1,0,1,0,0,0,1
"175","subCALEARN_3",181,1,"html-button-response-ca","No one wanted to take part in this particular social event",3304,0,3,"0.0-8.0-0.54-0.54",2726654,FALSE,1,54,"external_specific",121,"At a work-related social event, people are slow to volunteer to be on your team","negative","control","causal",3237799,2812581.6,3014498.1,60,3,2,0,1,0,1,0,0,0,1
"176","subCALEARN_3",183,1,"html-button-response-ca","I put myself out there",2721,0,3,"0.0-8.0-0.55-0.55",2733868,FALSE,1,55,"internal_global",114,"You attend a taster session for a new hobby you are interested in starting","positive","control","causal",3237799,2812581.6,3014498.1,60,3,2,1,0,1,0,1,0,0,0
"177","subCALEARN_3",185,1,"html-button-response-ca","I'm the sort of person people who don't know me well feel comfortable with",2121,0,3,"0.0-8.0-0.56-0.56",2740503,FALSE,1,56,"internal_global",117,"A neighbour invites you in to their house to chat","positive","control","causal",3237799,2812581.6,3014498.1,60,3,2,1,0,1,0,1,0,0,0
"178","subCALEARN_3",187,0,"html-button-response-ca","On this occasion, the problem was particularly hard",1871,0,3,"0.0-8.0-0.57-0.57",2746406,FALSE,1,57,"external_specific",118,"You try and work out in your head how much each person needs to pay for dinner but can't","negative","control","causal",3237799,2812581.6,3014498.1,60,3,2,0,1,0,1,0,0,0,1
"179","subCALEARN_3",189,1,"html-button-response-ca","I'm a hard-worker who's good at seeing things through",2750,0,3,"0.0-8.0-0.58-0.58",2753195,FALSE,1,58,"internal_global",109,"You have been working on a difficult project at work, but manage to get everything done you need to","positive","control","causal",3237799,2812581.6,3014498.1,60,3,2,1,0,1,0,1,0,0,0
"180","subCALEARN_3",191,1,"html-button-response-ca","I'm a good communicator",2064,0,3,"0.0-8.0-0.59-0.59",2759302,FALSE,1,59,"internal_global",40,"A colleague asks for your help writing a job application, since you write well","positive","control","causal",3237799,2812581.6,3014498.1,60,3,2,1,0,1,0,1,0,0,0
"181","subCALEARN_4",43,1,"html-button-response-ca","This particular colleague doesn't seem to have a very high opinion of me",4495,0,1,"0.0-8.0-0.0-0.0",1043786,FALSE,1,0,"internal_specific",4,"You ask a colleague to write you a reference but they say no","negative","control","causal",2600743,1856882.30000001,2237007.30000001,60,4,2,1,0,0,1,0,1,0,0
"182","subCALEARN_4",45,0,"html-button-response-ca","I've likely been messaging this person a lot recently",5091,0,1,"0.0-8.0-0.1-0.1",1052902,FALSE,0,1,"internal_specific",6,"You message a friend something silly and they reply straight away","positive","control","causal",2600743,1856882.30000001,2237007.30000001,60,4,2,1,0,0,1,0,1,0,0
"183","subCALEARN_4",47,0,"html-button-response-ca","I'm quick at picking up new things",3938,0,1,"0.0-8.0-0.2-0.2",1060867,FALSE,1,2,"internal_global",9,"You try a complicated new recipe and it turns out great","positive","control","causal",2600743,1856882.30000001,2237007.30000001,60,4,2,1,0,1,0,1,0,0,0
"184","subCALEARN_4",49,1,"html-button-response-ca","I'm the sort of person people like to keep in touch with",5423,0,1,"0.0-8.0-0.3-0.3",1070320,FALSE,1,3,"internal_global",10,"Someone you were at school with reaches out to ask how you are doing","positive","control","causal",2600743,1856882.30000001,2237007.30000001,60,4,2,1,0,1,0,1,0,0,0
"185","subCALEARN_4",51,0,"html-button-response-ca","On this occasion, I let myself get distracted so didn't see it through",5701,0,1,"0.0-8.0-0.4-0.4",1080059,FALSE,1,4,"internal_specific",12,"You start to fill out some paperwork for your bank but don't finish","negative","control","causal",2600743,1856882.30000001,2237007.30000001,60,4,2,1,0,0,1,0,1,0,0
"186","subCALEARN_4",53,0,"html-button-response-ca","I'm good at getting things done",4802,0,1,"0.0-8.0-0.5-0.5",1088892,FALSE,1,5,"internal_global",14,"You sort through a large basket of clothes that need to be washed","positive","control","causal",2600743,1856882.30000001,2237007.30000001,60,4,2,1,0,1,0,1,0,0,0
"187","subCALEARN_4",55,0,"html-button-response-ca","I probably haven't offered to help this person before",5880,0,1,"0.0-8.0-0.6-0.6",1098803,FALSE,1,6,"internal_specific",16,"A colleague asks everyone at work except you to help them review a job application form","negative","control","causal",2600743,1856882.30000001,2237007.30000001,60,4,2,1,0,0,1,0,1,0,0
"188","subCALEARN_4",57,1,"html-button-response-ca","I usually don't find it hard to get people's attention",12040,0,1,"0.0-8.0-0.7-0.7",1114877,FALSE,1,7,"internal_global",19,"You ask for help finding something in a shop, and manage to get what you need straight away","positive","control","causal",2600743,1856882.30000001,2237007.30000001,60,4,2,1,0,1,0,1,0,0,0
"189","subCALEARN_4",59,1,"html-button-response-ca","I likely didn't communicate to them that I might like to hear the same said back to me",6038,0,1,"0.0-8.0-0.8-0.8",1124932,FALSE,1,8,"internal_specific",20,"You tell someone you are close to you that you admire them, but they don't tell you the same back","negative","control","causal",2600743,1856882.30000001,2237007.30000001,60,4,2,1,0,0,1,0,1,0,0
"190","subCALEARN_4",61,1,"html-button-response-ca","I probably didn't try very hard this time",3766,0,1,"0.0-8.0-0.9-0.9",1132733,FALSE,1,9,"internal_specific",23,"You and your friends do a general knowledge quiz and you get the lowest score","negative","control","causal",2600743,1856882.30000001,2237007.30000001,60,4,2,1,0,0,1,0,1,0,0
"191","subCALEARN_4",63,0,"html-button-response-ca","People I'm close to generally miss me when I'm not around",6801,0,1,"0.0-8.0-0.10-0.10",1143561,FALSE,1,10,"internal_global",26,"Someone you care deeply about rings you up out of the blue to chat","positive","control","causal",2600743,1856882.30000001,2237007.30000001,60,4,2,1,0,1,0,1,0,0,0
"192","subCALEARN_4",65,0,"html-button-response-ca","I'm good at seeing things through",4833,0,1,"0.0-8.0-0.11-0.11",1152422,FALSE,1,11,"internal_global",27,"You have to fill in some long and boring paperwork, but manage to get it all done","positive","control","causal",2600743,1856882.30000001,2237007.30000001,60,4,2,1,0,1,0,1,0,0,0
"193","subCALEARN_4",67,0,"html-button-response-ca","On this occasion, I was probably disorganised and didn't plan my time well",5660,0,1,"0.0-8.0-0.12-0.12",1162110,FALSE,1,12,"internal_specific",30,"You don't manage to finish everything you need to do for an important work deadline","negative","control","causal",2600743,1856882.30000001,2237007.30000001,60,4,2,1,0,0,1,0,1,0,0
"194","subCALEARN_4",69,1,"html-button-response-ca","I'm the kind of person people want to get to know",5658,0,1,"0.0-8.0-0.13-0.13",1171796,FALSE,1,13,"internal_global",33,"Someone you met at an evening class suggests getting together for coffee","positive","control","causal",2600743,1856882.30000001,2237007.30000001,60,4,2,1,0,1,0,1,0,0,0
"195","subCALEARN_4",71,1,"html-button-response-ca","This time, I didn't plan well enough to get my application in on time",3904,0,1,"0.0-8.0-0.14-0.14",1179734,FALSE,1,14,"internal_specific",49,"You wanted to sign up for an evening class but realise you have missed the deadline","negative","control","causal",2600743,1856882.30000001,2237007.30000001,60,4,2,1,0,0,1,0,1,0,0
"196","subCALEARN_4",73,0,"html-button-response-ca","I may have done something recently to annoy this person",5507,0,1,"0.0-8.0-0.15-0.15",1189270,FALSE,1,15,"internal_specific",36,"You overhear a friend telling someone that you can't be trusted","negative","control","causal",2600743,1856882.30000001,2237007.30000001,60,4,2,1,0,0,1,0,1,0,0
"197","subCALEARN_4",75,1,"html-button-response-ca","I'm the sort of person people like to involve in things",5643,0,1,"0.0-8.0-0.16-0.16",1198930,FALSE,1,16,"internal_global",38,"You are asked to organise a social event for your local community","positive","control","causal",2600743,1856882.30000001,2237007.30000001,60,4,2,1,0,1,0,1,0,0,0
"198","subCALEARN_4",77,0,"html-button-response-ca","Recently, I haven't made enough time for hobbies or leisure activities",8554,0,1,"0.0-8.0-0.17-0.17",1211512,FALSE,1,17,"internal_specific",111,"You wish you had time to learn a new language or skill","negative","control","causal",2600743,1856882.30000001,2237007.30000001,60,4,2,1,0,0,1,0,1,0,0
"199","subCALEARN_4",79,1,"html-button-response-ca","On this occasion, I decided to just get it out of the way",5307,0,1,"0.0-8.0-0.18-0.18",1220848,FALSE,0,18,"internal_specific",42,"You get through a whole sink full of washing up","positive","control","causal",2600743,1856882.30000001,2237007.30000001,60,4,2,1,0,0,1,0,1,0,0
"200","subCALEARN_4",81,0,"html-button-response-ca","I probably didn't spend enough time working this particular submission",5816,0,1,"0.0-8.0-0.19-0.19",1230696,FALSE,1,19,"internal_specific",46,"You submit a piece of writing to a competition but it is rejected","negative","control","causal",2600743,1856882.30000001,2237007.30000001,60,4,2,1,0,0,1,0,1,0,0
"201","subCALEARN_4",87,1,"html-button-response-ca","I'm organised",3778,0,2,"0.0-8.0-0.20-0.20",1340433,FALSE,1,20,"internal_global",48,"You pick up a few things you need to make dinner","positive","control","causal",2600743,1856882.30000001,2237007.30000001,60,4,2,1,0,1,0,1,0,0,0
"202","subCALEARN_4",89,1,"html-button-response-ca","Lots of people don't use particular social media very often",4249,0,2,"0.0-8.0-0.21-0.21",1348715,FALSE,1,21,"external_global",126,"Someone you were at school with ignores your request to connect on social media","negative","control","causal",2600743,1856882.30000001,2237007.30000001,60,4,2,0,1,1,0,0,0,1,0
"203","subCALEARN_4",91,1,"html-button-response-ca","Often, there are more important things to think about than household chores",3949,0,2,"0.0-8.0-0.22-0.22",1356698,FALSE,1,22,"external_global",50,"You realise you forgot to hang out yesterday's washing","negative","control","causal",2600743,1856882.30000001,2237007.30000001,60,4,2,0,1,1,0,0,0,1,0
"204","subCALEARN_4",93,1,"html-button-response-ca","I'm the sort of person people think kindly of, even when absent",3247,0,2,"0.0-8.0-0.23-0.23",1363971,FALSE,1,23,"internal_global",51,"A friend sends you flowers, for no particular reason","positive","control","causal",2600743,1856882.30000001,2237007.30000001,60,4,2,1,0,1,0,1,0,0,0
"205","subCALEARN_4",95,1,"html-button-response-ca","Everyone gets lost sometimes",3734,0,2,"0.0-8.0-0.24-0.24",1371740,FALSE,1,24,"external_global",52,"You try taking a new short-cut home but end up getting lost","negative","control","causal",2600743,1856882.30000001,2237007.30000001,60,4,2,0,1,1,0,0,0,1,0
"206","subCALEARN_4",97,0,"html-button-response-ca","I'm the sort of person people like to be around",3977,0,2,"0.0-8.0-0.25-0.25",1379748,FALSE,1,25,"internal_global",57,"A colleague you don't know that well chooses to sit with you at lunch","positive","control","causal",2600743,1856882.30000001,2237007.30000001,60,4,2,1,0,1,0,1,0,0,0
"207","subCALEARN_4",99,0,"html-button-response-ca","People often feel like they don't want to interefere in others' lives",4999,0,2,"0.0-8.0-0.26-0.26",1388780,FALSE,1,26,"external_global",58,"You feel like you don't know your neighbours as well as you'd like to","negative","control","causal",2600743,1856882.30000001,2237007.30000001,60,4,2,0,1,1,0,0,0,1,0
"208","subCALEARN_4",101,1,"html-button-response-ca","Tests are often harder than people think",5771,0,2,"0.0-8.0-0.27-0.27",1398581,FALSE,1,27,"external_global",60,"Everyone at work is asked to do a lateral thinking test and you score poorly","negative","control","causal",2600743,1856882.30000001,2237007.30000001,60,4,2,0,1,1,0,0,0,1,0
"209","subCALEARN_4",103,1,"html-button-response-ca","I'm quick to pick things up",4050,0,2,"0.0-8.0-0.28-0.28",1406657,FALSE,1,28,"internal_global",63,"You manage to navigate a new route home without help","positive","control","causal",2600743,1856882.30000001,2237007.30000001,60,4,2,1,0,1,0,1,0,0,0
"210","subCALEARN_4",105,0,"html-button-response-ca","I'm likeable",2504,0,2,"0.0-8.0-0.29-0.29",1413187,FALSE,1,29,"internal_global",64,"A friend has sent you a postcard","positive","control","causal",2600743,1856882.30000001,2237007.30000001,60,4,2,1,0,1,0,1,0,0,0
"211","subCALEARN_4",107,0,"html-button-response-ca","People I'm close to care a lot about me",5043,0,2,"0.0-8.0-0.30-0.30",1422261,FALSE,1,30,"internal_global",65,"Someone you are close has sent you a gift, for no particular occasion","positive","control","causal",2600743,1856882.30000001,2237007.30000001,60,4,2,1,0,1,0,1,0,0,0
"212","subCALEARN_4",109,1,"html-button-response-ca","Paperwork is often hard and off-putting",4477,0,2,"0.0-8.0-0.31-0.31",1430774,FALSE,1,31,"external_global",66,"You need to fill in some complicated tax forms but end up not finishing them","negative","control","causal",2600743,1856882.30000001,2237007.30000001,60,4,2,0,1,1,0,0,0,1,0
"213","subCALEARN_4",111,1,"html-button-response-ca","People often lose touch with their contemporaries over time",5484,0,2,"0.0-8.0-0.32-0.32",1440294,FALSE,1,32,"external_global",69,"You notice that people from your year at school are having a lively conversation online, that you are not part of","negative","control","causal",2600743,1856882.30000001,2237007.30000001,60,4,2,0,1,1,0,0,0,1,0
"214","subCALEARN_4",113,0,"html-button-response-ca","I'm good at getting things done",3349,0,2,"0.0-8.0-0.33-0.33",1447670,FALSE,1,33,"internal_global",70,"You fold and put away a load of laundry","positive","control","causal",2600743,1856882.30000001,2237007.30000001,60,4,2,1,0,1,0,1,0,0,0
"215","subCALEARN_4",115,1,"html-button-response-ca","Puzzles can often be tedious and not fun",3085,0,2,"0.0-8.0-0.34-0.34",1454790,FALSE,1,34,"external_global",71,"You attempt a sudoko puzzle but can't finish it","negative","control","causal",2600743,1856882.30000001,2237007.30000001,60,4,2,0,1,1,0,0,0,1,0
"216","subCALEARN_4",117,1,"html-button-response-ca","There will always be days when you don't feel you were able to do your best",4418,0,2,"0.0-8.0-0.35-0.35",1463238,FALSE,1,35,"external_global",80,"You found out someone has complained to your employer about the quality of your work","negative","control","causal",2600743,1856882.30000001,2237007.30000001,60,4,2,0,1,1,0,0,0,1,0
"217","subCALEARN_4",119,1,"html-button-response-ca","I'm the sort of person people like to be around",4341,0,2,"0.0-8.0-0.36-0.36",1471615,FALSE,1,36,"internal_global",81,"A colleague particularly seeks you out to be on their team for an activity","positive","control","causal",2600743,1856882.30000001,2237007.30000001,60,4,2,1,0,1,0,1,0,0,0
"218","subCALEARN_4",121,1,"html-button-response-ca","Everyone lets life get in the way of things we value sometimes",3704,0,2,"0.0-8.0-0.37-0.37",1479346,FALSE,1,37,"external_global",82,"You feel like you'd like to have more hobbies","negative","control","causal",2600743,1856882.30000001,2237007.30000001,60,4,2,0,1,1,0,0,0,1,0
"219","subCALEARN_4",123,0,"html-button-response-ca","I'm good at remembering things",5018,0,2,"0.0-8.0-0.38-0.38",1488382,FALSE,1,38,"internal_global",85,"You do a large weekly shop and remember to get everything on your list","positive","control","causal",2600743,1856882.30000001,2237007.30000001,60,4,2,1,0,1,0,1,0,0,0
"220","subCALEARN_4",125,1,"html-button-response-ca","I'm the sort of person who gets things done",4934,0,2,"0.0-8.0-0.39-0.39",1497352,FALSE,1,39,"internal_global",86,"You fix something around the house that you have been meaning to get done for a while","positive","control","causal",2600743,1856882.30000001,2237007.30000001,60,4,2,1,0,1,0,1,0,0,0
"221","subCALEARN_4",131,1,"html-button-response-ca","This person may have a large family so doesn't have space for everyone to speak at this event",6560,0,3,"0.0-8.0-0.40-0.40",1556034,FALSE,1,40,"external_specific",87,"Someone you are very close to doesn't ask you to speak at their wedding","negative","control","causal",2600743,1856882.30000001,2237007.30000001,60,4,2,0,1,0,1,0,0,0,1
"222","subCALEARN_4",133,1,"html-button-response-ca","Someone may have mistakenly implied to these people that I prefer to eat alone",3167,0,3,"0.0-8.0-0.41-0.41",1563231,FALSE,1,41,"external_specific",88,"No one sits with you during your lunch break at work","negative","control","causal",2600743,1856882.30000001,2237007.30000001,60,4,2,0,1,0,1,0,0,0,1
"223","subCALEARN_4",135,0,"html-button-response-ca","Right now, I have a lot of other responsibilites that make it hard to commit time to learning",6848,0,3,"0.0-8.0-0.42-0.42",1574111,FALSE,1,42,"external_specific",89,"You are trying to learn a new language but can't seem to recall any phrases today","negative","control","causal",2600743,1856882.30000001,2237007.30000001,60,4,2,0,1,0,1,0,0,0,1
"224","subCALEARN_4",137,0,"html-button-response-ca","I'm the kind of person people would like to have represent them",6486,0,3,"0.0-8.0-0.43-0.43",1584631,FALSE,1,43,"internal_global",90,"You are asked to consider stepping forward to be a representative of your local community","positive","control","causal",2600743,1856882.30000001,2237007.30000001,60,4,2,1,0,1,0,1,0,0,0
"225","subCALEARN_4",139,1,"html-button-response-ca","I tend to pick things up quickly",4364,0,3,"0.0-8.0-0.44-0.44",1593031,FALSE,1,44,"internal_global",91,"You ask for directions from a stranger and sucessfully follow them","positive","control","causal",2600743,1856882.30000001,2237007.30000001,60,4,2,1,0,1,0,1,0,0,0
"226","subCALEARN_4",141,1,"html-button-response-ca","This particular assistant was probably in the middle of doing something else",5360,0,3,"0.0-8.0-0.45-0.45",1602415,FALSE,1,45,"external_specific",92,"You ask for help in a shop but feel the assistant ignores you","negative","control","causal",2600743,1856882.30000001,2237007.30000001,60,4,2,0,1,0,1,0,0,0,1
"227","subCALEARN_4",143,0,"html-button-response-ca","I'm the sort of person people often like straight away",7989,0,3,"0.0-8.0-0.46-0.46",1614439,FALSE,1,46,"internal_global",94,"Someone you met in an art class messages you to ask how you are","positive","control","causal",2600743,1856882.30000001,2237007.30000001,60,4,2,1,0,1,0,1,0,0,0
"228","subCALEARN_4",145,0,"html-button-response-ca","I'm intelligent",4903,0,3,"0.0-8.0-0.47-0.47",1623376,FALSE,1,47,"internal_global",95,"You manage to solve a difficult puzzle in the weekend paper","positive","control","causal",2600743,1856882.30000001,2237007.30000001,60,4,2,1,0,1,0,1,0,0,0
"229","subCALEARN_4",147,0,"html-button-response-ca","I like to get involved in things",4901,0,3,"0.0-8.0-0.48-0.48",1632307,FALSE,1,48,"internal_global",96,"You volunteer to join a local community organisation","positive","control","causal",2600743,1856882.30000001,2237007.30000001,60,4,2,1,0,1,0,1,0,0,0
"230","subCALEARN_4",149,1,"html-button-response-ca","People probably didn't realise I was eligible for this particular award",6767,0,3,"0.0-8.0-0.49-0.49",1643104,FALSE,1,49,"external_specific",98,"You had hoped to be nominated for an award at work but no one put you forward","negative","control","causal",2600743,1856882.30000001,2237007.30000001,60,4,2,0,1,0,1,0,0,0,1
"231","subCALEARN_4",151,0,"html-button-response-ca","Just then, they probably assumed I already thought they respected me",6744,0,3,"0.0-8.0-0.50-0.50",1653880,FALSE,1,50,"external_specific",103,"You tell someone you are close to that you respect them, but they don't tell you the same back","negative","control","causal",2600743,1856882.30000001,2237007.30000001,60,4,2,0,1,0,1,0,0,0,1
"232","subCALEARN_4",153,0,"html-button-response-ca","My friend was probably didn't see me",3929,0,3,"0.0-8.0-0.51-0.51",1661832,FALSE,1,51,"external_specific",34,"You see a friend on the street but they appear to ignore you","negative","control","causal",2600743,1856882.30000001,2237007.30000001,60,4,2,0,1,0,1,0,0,0,1
"233","subCALEARN_4",155,0,"html-button-response-ca","I find it easy to get things done",5454,0,3,"0.0-8.0-0.52-0.52",1671313,FALSE,1,52,"internal_global",107,"You put together a simple dinner you have cooked several times before","positive","control","causal",2600743,1856882.30000001,2237007.30000001,60,4,2,1,0,1,0,1,0,0,0
"234","subCALEARN_4",157,0,"html-button-response-ca","This specific comment was probably the result of a misunderstanding",6053,0,3,"0.0-8.0-0.53-0.53",1681401,FALSE,1,53,"external_specific",119,"A friend tells you they don't think you are honest","negative","control","causal",2600743,1856882.30000001,2237007.30000001,60,4,2,0,1,0,1,0,0,0,1
"235","subCALEARN_4",159,1,"html-button-response-ca","No one wanted to take part in this particular social event",14404,0,3,"0.0-8.0-0.54-0.54",1699682,FALSE,1,54,"external_specific",121,"At a work-related social event, people are slow to volunteer to be on your team","negative","control","causal",2600743,1856882.30000001,2237007.30000001,60,4,2,0,1,0,1,0,0,0,1
"236","subCALEARN_4",161,1,"html-button-response-ca","I put myself out there",4668,0,3,"0.0-8.0-0.55-0.55",1706016,FALSE,1,55,"internal_global",114,"You attend a taster session for a new hobby you are interested in starting","positive","control","causal",2600743,1856882.30000001,2237007.30000001,60,4,2,1,0,1,0,1,0,0,0
"237","subCALEARN_4",163,1,"html-button-response-ca","I'm the sort of person people who don't know me well feel comfortable with",6557,0,3,"0.0-8.0-0.56-0.56",1716606,FALSE,1,56,"internal_global",117,"A neighbour invites you in to their house to chat","positive","control","causal",2600743,1856882.30000001,2237007.30000001,60,4,2,1,0,1,0,1,0,0,0
"238","subCALEARN_4",165,0,"html-button-response-ca","On this occasion, the problem was particularly hard",5587,0,3,"0.0-8.0-0.57-0.57",1726218,FALSE,1,57,"external_specific",118,"You try and work out in your head how much each person needs to pay for dinner but can't","negative","control","causal",2600743,1856882.30000001,2237007.30000001,60,4,2,0,1,0,1,0,0,0,1
"239","subCALEARN_4",167,1,"html-button-response-ca","I'm a hard-worker who's good at seeing things through",8163,0,3,"0.0-8.0-0.58-0.58",1738410,FALSE,1,58,"internal_global",109,"You have been working on a difficult project at work, but manage to get everything done you need to","positive","control","causal",2600743,1856882.30000001,2237007.30000001,60,4,2,1,0,1,0,1,0,0,0
"240","subCALEARN_4",169,0,"html-button-response-ca","I'm a good communicator",4923,0,3,"0.0-8.0-0.59-0.59",1747363,FALSE,1,59,"internal_global",40,"A colleague asks for your help writing a job application, since you write well","positive","control","causal",2600743,1856882.30000001,2237007.30000001,60,4,2,1,0,1,0,1,0,0,0
"241","subCALEARN_5",43,0,"html-button-response-ca","This particular colleague doesn't seem to have a very high opinion of me",10023,0,1,"0.0-8.0-0.0-0.0",1149223,FALSE,1,0,"internal_specific",4,"You ask a colleague to write you a reference but they say no","negative","control","causal",2723572,2030733.9000001,2396821.5,60,5,2,1,0,0,1,0,1,0,0
"242","subCALEARN_5",45,1,"html-button-response-ca","I've likely been messaging this person a lot recently",8027,0,1,"0.0-8.0-0.1-0.1",1161269,FALSE,0,1,"internal_specific",6,"You message a friend something silly and they reply straight away","positive","control","causal",2723572,2030733.9000001,2396821.5,60,5,2,1,0,0,1,0,1,0,0
"243","subCALEARN_5",47,0,"html-button-response-ca","On this occasion, I managed to do everything right",3233,0,1,"0.0-8.0-0.2-0.2",1168524,FALSE,0,2,"internal_specific",9,"You try a complicated new recipe and it turns out great","positive","control","causal",2723572,2030733.9000001,2396821.5,60,5,2,1,0,0,1,0,1,0,0
"244","subCALEARN_5",49,0,"html-button-response-ca","I'm the sort of person people like to keep in touch with",4078,0,1,"0.0-8.0-0.3-0.3",1176639,FALSE,1,3,"internal_global",10,"Someone you were at school with reaches out to ask how you are doing","positive","control","causal",2723572,2030733.9000001,2396821.5,60,5,2,1,0,1,0,1,0,0,0
"245","subCALEARN_5",51,1,"html-button-response-ca","On this occasion, I let myself get distracted so didn't see it through",4486,0,1,"0.0-8.0-0.4-0.4",1185148,FALSE,1,4,"internal_specific",12,"You start to fill out some paperwork for your bank but don't finish","negative","control","causal",2723572,2030733.9000001,2396821.5,60,5,2,1,0,0,1,0,1,0,0
"246","subCALEARN_5",53,1,"html-button-response-ca","I'm good at getting things done",6363,0,1,"0.0-8.0-0.5-0.5",1195518,FALSE,1,5,"internal_global",14,"You sort through a large basket of clothes that need to be washed","positive","control","causal",2723572,2030733.9000001,2396821.5,60,5,2,1,0,1,0,1,0,0,0
"247","subCALEARN_5",55,0,"html-button-response-ca","I probably haven't offered to help this person before",7448,0,1,"0.0-8.0-0.6-0.6",1207005,FALSE,1,6,"internal_specific",16,"A colleague asks everyone at work except you to help them review a job application form","negative","control","causal",2723572,2030733.9000001,2396821.5,60,5,2,1,0,0,1,0,1,0,0
"248","subCALEARN_5",57,1,"html-button-response-ca","I usually don't find it hard to get people's attention",11146,0,1,"0.0-8.0-0.7-0.7",1222166,FALSE,1,7,"internal_global",19,"You ask for help finding something in a shop, and manage to get what you need straight away","positive","control","causal",2723572,2030733.9000001,2396821.5,60,5,2,1,0,1,0,1,0,0,0
"249","subCALEARN_5",59,0,"html-button-response-ca","I likely didn't communicate to them that I might like to hear the same said back to me",9633,0,1,"0.0-8.0-0.8-0.8",1235835,FALSE,1,8,"internal_specific",20,"You tell someone you are close to you that you admire them, but they don't tell you the same back","negative","control","causal",2723572,2030733.9000001,2396821.5,60,5,2,1,0,0,1,0,1,0,0
"250","subCALEARN_5",61,1,"html-button-response-ca","I probably didn't try very hard this time",4118,0,1,"0.0-8.0-0.9-0.9",1243969,FALSE,1,9,"internal_specific",23,"You and your friends do a general knowledge quiz and you get the lowest score","negative","control","causal",2723572,2030733.9000001,2396821.5,60,5,2,1,0,0,1,0,1,0,0
"251","subCALEARN_5",63,0,"html-button-response-ca","This particular person has always seemed to care about me",5618,0,1,"0.0-8.0-0.10-0.10",1253617,FALSE,0,10,"internal_specific",26,"Someone you care deeply about rings you up out of the blue to chat","positive","control","causal",2723572,2030733.9000001,2396821.5,60,5,2,1,0,0,1,0,1,0,0
"252","subCALEARN_5",65,1,"html-button-response-ca","I'm good at seeing things through",3038,0,1,"0.0-8.0-0.11-0.11",1260676,FALSE,1,11,"internal_global",27,"You have to fill in some long and boring paperwork, but manage to get it all done","positive","control","causal",2723572,2030733.9000001,2396821.5,60,5,2,1,0,1,0,1,0,0,0
"253","subCALEARN_5",67,0,"html-button-response-ca","On this occasion, I was probably disorganised and didn't plan my time well",4666,0,1,"0.0-8.0-0.12-0.12",1269356,FALSE,1,12,"internal_specific",30,"You don't manage to finish everything you need to do for an important work deadline","negative","control","causal",2723572,2030733.9000001,2396821.5,60,5,2,1,0,0,1,0,1,0,0
"254","subCALEARN_5",69,0,"html-button-response-ca","I'm the kind of person people want to get to know",4053,0,1,"0.0-8.0-0.13-0.13",1277429,FALSE,1,13,"internal_global",33,"Someone you met at an evening class suggests getting together for coffee","positive","control","causal",2723572,2030733.9000001,2396821.5,60,5,2,1,0,1,0,1,0,0,0
"255","subCALEARN_5",71,1,"html-button-response-ca","This time, I didn't plan well enough to get my application in on time",10565,0,1,"0.0-8.0-0.14-0.14",1292006,FALSE,1,14,"internal_specific",49,"You wanted to sign up for an evening class but realise you have missed the deadline","negative","control","causal",2723572,2030733.9000001,2396821.5,60,5,2,1,0,0,1,0,1,0,0
"256","subCALEARN_5",73,0,"html-button-response-ca","I may have done something recently to annoy this person",3567,0,1,"0.0-8.0-0.15-0.15",1299606,FALSE,1,15,"internal_specific",36,"You overhear a friend telling someone that you can't be trusted","negative","control","causal",2723572,2030733.9000001,2396821.5,60,5,2,1,0,0,1,0,1,0,0
"257","subCALEARN_5",75,0,"html-button-response-ca","I'm the sort of person people like to involve in things",9141,0,1,"0.0-8.0-0.16-0.16",1312775,FALSE,1,16,"internal_global",38,"You are asked to organise a social event for your local community","positive","control","causal",2723572,2030733.9000001,2396821.5,60,5,2,1,0,1,0,1,0,0,0
"258","subCALEARN_5",77,0,"html-button-response-ca","Recently, I haven't made enough time for hobbies or leisure activities",4316,0,1,"0.0-8.0-0.17-0.17",1321109,FALSE,1,17,"internal_specific",111,"You wish you had time to learn a new language or skill","negative","control","causal",2723572,2030733.9000001,2396821.5,60,5,2,1,0,0,1,0,1,0,0
"259","subCALEARN_5",79,0,"html-button-response-ca","When I need to, I generally get things done",4077,0,1,"0.0-8.0-0.18-0.18",1329210,FALSE,1,18,"internal_global",42,"You get through a whole sink full of washing up","positive","control","causal",2723572,2030733.9000001,2396821.5,60,5,2,1,0,1,0,1,0,0,0
"260","subCALEARN_5",81,1,"html-button-response-ca","I probably didn't spend enough time working this particular submission",3528,0,1,"0.0-8.0-0.19-0.19",1336763,FALSE,1,19,"internal_specific",46,"You submit a piece of writing to a competition but it is rejected","negative","control","causal",2723572,2030733.9000001,2396821.5,60,5,2,1,0,0,1,0,1,0,0
"261","subCALEARN_5",87,1,"html-button-response-ca","I'm organised",4773,0,2,"0.0-8.0-0.20-0.20",1478904,FALSE,1,20,"internal_global",48,"You pick up a few things you need to make dinner","positive","control","causal",2723572,2030733.9000001,2396821.5,60,5,2,1,0,1,0,1,0,0,0
"262","subCALEARN_5",89,1,"html-button-response-ca","Lots of people don't use particular social media very often",4603,0,2,"0.0-8.0-0.21-0.21",1487513,FALSE,1,21,"external_global",126,"Someone you were at school with ignores your request to connect on social media","negative","control","causal",2723572,2030733.9000001,2396821.5,60,5,2,0,1,1,0,0,0,1,0
"263","subCALEARN_5",91,0,"html-button-response-ca","Often, there are more important things to think about than household chores",3074,0,2,"0.0-8.0-0.22-0.22",1494609,FALSE,1,22,"external_global",50,"You realise you forgot to hang out yesterday's washing","negative","control","causal",2723572,2030733.9000001,2396821.5,60,5,2,0,1,1,0,0,0,1,0
"264","subCALEARN_5",93,1,"html-button-response-ca","I'm the sort of person people think kindly of, even when absent",8409,0,2,"0.0-8.0-0.23-0.23",1507047,FALSE,1,23,"internal_global",51,"A friend sends you flowers, for no particular reason","positive","control","causal",2723572,2030733.9000001,2396821.5,60,5,2,1,0,1,0,1,0,0,0
"265","subCALEARN_5",95,1,"html-button-response-ca","Everyone gets lost sometimes",6218,0,2,"0.0-8.0-0.24-0.24",1517299,FALSE,1,24,"external_global",52,"You try taking a new short-cut home but end up getting lost","negative","control","causal",2723572,2030733.9000001,2396821.5,60,5,2,0,1,1,0,0,0,1,0
"266","subCALEARN_5",97,0,"html-button-response-ca","I'm the sort of person people like to be around",4668,0,2,"0.0-8.0-0.25-0.25",1526007,FALSE,1,25,"internal_global",57,"A colleague you don't know that well chooses to sit with you at lunch","positive","control","causal",2723572,2030733.9000001,2396821.5,60,5,2,1,0,1,0,1,0,0,0
"267","subCALEARN_5",99,0,"html-button-response-ca","People often feel like they don't want to interefere in others' lives",5071,0,2,"0.0-8.0-0.26-0.26",1535105,FALSE,1,26,"external_global",58,"You feel like you don't know your neighbours as well as you'd like to","negative","control","causal",2723572,2030733.9000001,2396821.5,60,5,2,0,1,1,0,0,0,1,0
"268","subCALEARN_5",101,0,"html-button-response-ca","Tests are often harder than people think",4753,0,2,"0.0-8.0-0.27-0.27",1543872,FALSE,1,27,"external_global",60,"Everyone at work is asked to do a lateral thinking test and you score poorly","negative","control","causal",2723572,2030733.9000001,2396821.5,60,5,2,0,1,1,0,0,0,1,0
"269","subCALEARN_5",103,0,"html-button-response-ca","I'm quick to pick things up",5072,0,2,"0.0-8.0-0.28-0.28",1552972,FALSE,1,28,"internal_global",63,"You manage to navigate a new route home without help","positive","control","causal",2723572,2030733.9000001,2396821.5,60,5,2,1,0,1,0,1,0,0,0
"270","subCALEARN_5",105,1,"html-button-response-ca","I'm likeable",3278,0,2,"0.0-8.0-0.29-0.29",1560279,FALSE,1,29,"internal_global",64,"A friend has sent you a postcard","positive","control","causal",2723572,2030733.9000001,2396821.5,60,5,2,1,0,1,0,1,0,0,0
"271","subCALEARN_5",107,1,"html-button-response-ca","People I'm close to care a lot about me",3939,0,2,"0.0-8.0-0.30-0.30",1568252,FALSE,1,30,"internal_global",65,"Someone you are close has sent you a gift, for no particular occasion","positive","control","causal",2723572,2030733.9000001,2396821.5,60,5,2,1,0,1,0,1,0,0,0
"272","subCALEARN_5",109,1,"html-button-response-ca","Paperwork is often hard and off-putting",5661,0,2,"0.0-8.0-0.31-0.31",1577940,FALSE,1,31,"external_global",66,"You need to fill in some complicated tax forms but end up not finishing them","negative","control","causal",2723572,2030733.9000001,2396821.5,60,5,2,0,1,1,0,0,0,1,0
"273","subCALEARN_5",111,0,"html-button-response-ca","People often lose touch with their contemporaries over time",5199,0,2,"0.0-8.0-0.32-0.32",1587183,FALSE,1,32,"external_global",69,"You notice that people from your year at school are having a lively conversation online, that you are not part of","negative","control","causal",2723572,2030733.9000001,2396821.5,60,5,2,0,1,1,0,0,0,1,0
"274","subCALEARN_5",113,1,"html-button-response-ca","I'm good at getting things done",3968,0,2,"0.0-8.0-0.33-0.33",1595177,FALSE,1,33,"internal_global",70,"You fold and put away a load of laundry","positive","control","causal",2723572,2030733.9000001,2396821.5,60,5,2,1,0,1,0,1,0,0,0
"275","subCALEARN_5",115,1,"html-button-response-ca","Puzzles can often be tedious and not fun",2688,0,2,"0.0-8.0-0.34-0.34",1601897,FALSE,1,34,"external_global",71,"You attempt a sudoko puzzle but can't finish it","negative","control","causal",2723572,2030733.9000001,2396821.5,60,5,2,0,1,1,0,0,0,1,0
"276","subCALEARN_5",117,1,"html-button-response-ca","There will always be days when you don't feel you were able to do your best",5153,0,2,"0.0-8.0-0.35-0.35",1611078,FALSE,1,35,"external_global",80,"You found out someone has complained to your employer about the quality of your work","negative","control","causal",2723572,2030733.9000001,2396821.5,60,5,2,0,1,1,0,0,0,1,0
"277","subCALEARN_5",119,0,"html-button-response-ca","I'm the sort of person people like to be around",4671,0,2,"0.0-8.0-0.36-0.36",1619754,FALSE,1,36,"internal_global",81,"A colleague particularly seeks you out to be on their team for an activity","positive","control","causal",2723572,2030733.9000001,2396821.5,60,5,2,1,0,1,0,1,0,0,0
"278","subCALEARN_5",121,1,"html-button-response-ca","Everyone lets life get in the way of things we value sometimes",4978,0,2,"0.0-8.0-0.37-0.37",1628768,FALSE,1,37,"external_global",82,"You feel like you'd like to have more hobbies","negative","control","causal",2723572,2030733.9000001,2396821.5,60,5,2,0,1,1,0,0,0,1,0
"279","subCALEARN_5",123,1,"html-button-response-ca","I'm good at remembering things",3850,0,2,"0.0-8.0-0.38-0.38",1636658,FALSE,1,38,"internal_global",85,"You do a large weekly shop and remember to get everything on your list","positive","control","causal",2723572,2030733.9000001,2396821.5,60,5,2,1,0,1,0,1,0,0,0
"280","subCALEARN_5",125,1,"html-button-response-ca","I'm the sort of person who gets things done",9220,0,2,"0.0-8.0-0.39-0.39",1649907,FALSE,1,39,"internal_global",86,"You fix something around the house that you have been meaning to get done for a while","positive","control","causal",2723572,2030733.9000001,2396821.5,60,5,2,1,0,1,0,1,0,0,0
"281","subCALEARN_5",131,1,"html-button-response-ca","This person may have a large family so doesn't have space for everyone to speak at this event",7858,0,3,"0.0-8.0-0.40-0.40",1742548,FALSE,1,40,"external_specific",87,"Someone you are very close to doesn't ask you to speak at their wedding","negative","control","causal",2723572,2030733.9000001,2396821.5,60,5,2,0,1,0,1,0,0,0,1
"282","subCALEARN_5",133,1,"html-button-response-ca","Someone may have mistakenly implied to these people that I prefer to eat alone",4588,0,3,"0.0-8.0-0.41-0.41",1751157,FALSE,1,41,"external_specific",88,"No one sits with you during your lunch break at work","negative","control","causal",2723572,2030733.9000001,2396821.5,60,5,2,0,1,0,1,0,0,0,1
"283","subCALEARN_5",135,1,"html-button-response-ca","Right now, I have a lot of other responsibilites that make it hard to commit time to learning",3715,0,3,"0.0-8.0-0.42-0.42",1758880,FALSE,1,42,"external_specific",89,"You are trying to learn a new language but can't seem to recall any phrases today","negative","control","causal",2723572,2030733.9000001,2396821.5,60,5,2,0,1,0,1,0,0,0,1
"284","subCALEARN_5",137,0,"html-button-response-ca","I'm the kind of person people would like to have represent them",14490,0,3,"0.0-8.0-0.43-0.43",1777150,FALSE,1,43,"internal_global",90,"You are asked to consider stepping forward to be a representative of your local community","positive","control","causal",2723572,2030733.9000001,2396821.5,60,5,2,1,0,1,0,1,0,0,0
"285","subCALEARN_5",139,0,"html-button-response-ca","I tend to pick things up quickly",6570,0,3,"0.0-8.0-0.44-0.44",1785474,FALSE,1,44,"internal_global",91,"You ask for directions from a stranger and sucessfully follow them","positive","control","causal",2723572,2030733.9000001,2396821.5,60,5,2,1,0,1,0,1,0,0,0
"286","subCALEARN_5",141,1,"html-button-response-ca","This particular assistant was probably in the middle of doing something else",3980,0,3,"0.0-8.0-0.45-0.45",1793490,FALSE,1,45,"external_specific",92,"You ask for help in a shop but feel the assistant ignores you","negative","control","causal",2723572,2030733.9000001,2396821.5,60,5,2,0,1,0,1,0,0,0,1
"287","subCALEARN_5",143,0,"html-button-response-ca","I'm the sort of person people often like straight away",5170,0,3,"0.0-8.0-0.46-0.46",1802687,FALSE,1,46,"internal_global",94,"Someone you met in an art class messages you to ask how you are","positive","control","causal",2723572,2030733.9000001,2396821.5,60,5,2,1,0,1,0,1,0,0,0
"288","subCALEARN_5",145,0,"html-button-response-ca","I'm intelligent",2935,0,3,"0.0-8.0-0.47-0.47",1809653,FALSE,1,47,"internal_global",95,"You manage to solve a difficult puzzle in the weekend paper","positive","control","causal",2723572,2030733.9000001,2396821.5,60,5,2,1,0,1,0,1,0,0,0
"289","subCALEARN_5",147,1,"html-button-response-ca","I like to get involved in things",5151,0,3,"0.0-8.0-0.48-0.48",1818828,FALSE,1,48,"internal_global",96,"You volunteer to join a local community organisation","positive","control","causal",2723572,2030733.9000001,2396821.5,60,5,2,1,0,1,0,1,0,0,0
"290","subCALEARN_5",149,1,"html-button-response-ca","People probably didn't realise I was eligible for this particular award",4875,0,3,"0.0-8.0-0.49-0.49",1827734,FALSE,1,49,"external_specific",98,"You had hoped to be nominated for an award at work but no one put you forward","negative","control","causal",2723572,2030733.9000001,2396821.5,60,5,2,0,1,0,1,0,0,0,1
"291","subCALEARN_5",151,0,"html-button-response-ca","Just then, they probably assumed I already thought they respected me",5272,0,3,"0.0-8.0-0.50-0.50",1837026,FALSE,1,50,"external_specific",103,"You tell someone you are close to that you respect them, but they don't tell you the same back","negative","control","causal",2723572,2030733.9000001,2396821.5,60,5,2,0,1,0,1,0,0,0,1
"292","subCALEARN_5",153,0,"html-button-response-ca","My friend was probably didn't see me",2567,0,3,"0.0-8.0-0.51-0.51",1843614,FALSE,1,51,"external_specific",34,"You see a friend on the street but they appear to ignore you","negative","control","causal",2723572,2030733.9000001,2396821.5,60,5,2,0,1,0,1,0,0,0,1
"293","subCALEARN_5",155,1,"html-button-response-ca","I find it easy to get things done",4344,0,3,"0.0-8.0-0.52-0.52",1851981,FALSE,1,52,"internal_global",107,"You put together a simple dinner you have cooked several times before","positive","control","causal",2723572,2030733.9000001,2396821.5,60,5,2,1,0,1,0,1,0,0,0
"294","subCALEARN_5",157,0,"html-button-response-ca","This specific comment was probably the result of a misunderstanding",6612,0,3,"0.0-8.0-0.53-0.53",1862615,FALSE,1,53,"external_specific",119,"A friend tells you they don't think you are honest","negative","control","causal",2723572,2030733.9000001,2396821.5,60,5,2,0,1,0,1,0,0,0,1
"295","subCALEARN_5",159,1,"html-button-response-ca","No one wanted to take part in this particular social event",5489,0,3,"0.0-8.0-0.54-0.54",1872121,FALSE,1,54,"external_specific",121,"At a work-related social event, people are slow to volunteer to be on your team","negative","control","causal",2723572,2030733.9000001,2396821.5,60,5,2,0,1,0,1,0,0,0,1
